"subj","trial_index_actual","block","stimulus","stim_rank","reward_percent","delay_s","profitability","stim_left_right","key_press","approach_avoid","rt","rt_z","force_trial","missed","order_condition","exclude","exclude_reason"
"1","0","0","../static/images/invador1.png","4","20","8","2.5","right","74","1","1195","1.09567386648762","1","0","1","0","do not exclude"
"1","1","0","../static/images/invador3.png","1","80","2","40","right","74","1","718","-1.04463596508796","0","0","1","0","do not exclude"
"1","2","0","../static/images/invador2.png","2","20","2","10","left","70","NaN","NaN","NaN","2","1","1","0","do not exclude"
"1","3","0","../static/images/invador4.png","3","80","8","10","left","70","1","933","-0.0799260829312511","0","0","1","0","do not exclude"
"1","4","0","../static/images/invador3.png","1","80","2","40","left","70","1","750","-0.901051238441381","1","0","1","0","do not exclude"
"1","5","0","../static/images/invador3.png","1","80","2","40","right","74","1","628","-1.44846800878147","0","0","1","0","do not exclude"
"1","6","0","../static/images/invador3.png","1","80","2","40","left","74","-1","657","-1.31834435025801","2","0","1","0","do not exclude"
"1","7","0","../static/images/invador3.png","1","80","2","40","right","74","1","884","-0.299790195608827","0","0","1","0","do not exclude"
"1","8","0","../static/images/invador4.png","3","80","8","10","right","74","1","492","-2.05870309702943","0","0","1","0","do not exclude"
"1","9","0","../static/images/invador3.png","1","80","2","40","left","70","1","596","-1.59205273542805","0","0","1","0","do not exclude"
"1","10","0","../static/images/invador1.png","4","20","8","2.5","right","74","1","618","-1.49333823585852","1","0","1","0","do not exclude"
"1","11","0","../static/images/invador3.png","1","80","2","40","right","74","1","512","-1.96896264287532","1","0","1","0","do not exclude"
"1","12","0","../static/images/invador2.png","2","20","2","10","left","70","1","631","-1.43500694065835","0","0","1","0","do not exclude"
"1","13","0","../static/images/invador3.png","1","80","2","40","left","70","1","824","-0.569011558071165","0","0","1","0","do not exclude"
"1","14","0","../static/images/invador3.png","1","80","2","40","left","70","1","1063","0.503386869070481","0","0","1","0","do not exclude"
"1","15","0","../static/images/invador1.png","4","20","8","2.5","right","70","-1","1007","0.252113597438965","0","0","1","0","do not exclude"
"1","16","0","../static/images/invador2.png","2","20","2","10","right","70","-1","1072","0.543770073439832","0","0","1","0","do not exclude"
"1","17","0","../static/images/invador3.png","1","80","2","40","left","70","1","893","-0.259406991239476","0","0","1","0","do not exclude"
"1","18","0","../static/images/invador3.png","1","80","2","40","left","70","1","1044","0.418133437624074","0","0","1","0","do not exclude"
"1","19","0","../static/images/invador3.png","1","80","2","40","left","70","1","1044","0.418133437624074","0","0","1","0","do not exclude"
"1","20","0","../static/images/invador4.png","3","80","8","10","left","74","-1","870","-0.362608513516706","0","0","1","0","do not exclude"
"1","21","0","../static/images/invador2.png","2","20","2","10","right","70","-1","1019","0.305957869931433","0","0","1","0","do not exclude"
"1","22","0","../static/images/invador3.png","1","80","2","40","left","70","1","1130","0.804017390486758","0","0","1","0","do not exclude"
"1","23","0","../static/images/invador4.png","3","80","8","10","left","74","-1","712","-1.0715581013342","0","0","1","0","do not exclude"
"1","24","0","../static/images/invador1.png","4","20","8","2.5","left","74","-1","737","-0.959382533641555","0","0","1","0","do not exclude"
"1","25","0","../static/images/invador3.png","1","80","2","40","left","70","1","1111","0.718763959040351","0","0","1","0","do not exclude"
"1","26","0","../static/images/invador3.png","1","80","2","40","right","70","-1","838","-0.506193240163286","2","0","1","0","do not exclude"
"1","27","0","../static/images/invador3.png","1","80","2","40","right","74","1","1205","1.14054409356468","0","0","1","0","do not exclude"
"1","28","0","../static/images/invador3.png","1","80","2","40","right","70","-1","606","-1.54718250835099","2","0","1","0","do not exclude"
"1","29","0","../static/images/invador3.png","1","80","2","40","left","70","1","997","0.207243370361909","0","0","1","0","do not exclude"
"1","30","0","../static/images/invador2.png","2","20","2","10","left","74","-1","682","-1.20616878256536","2","0","1","0","do not exclude"
"1","31","0","../static/images/invador4.png","3","80","8","10","right","74","1","859","-0.411965763301468","1","0","1","0","do not exclude"
"1","32","0","../static/images/invador1.png","4","20","8","2.5","right","70","-1","830","-0.542089421824931","0","0","1","0","do not exclude"
"1","33","0","../static/images/invador3.png","1","80","2","40","left","70","1","1107","0.700815868209529","0","0","1","0","do not exclude"
"1","34","0","../static/images/invador3.png","1","80","2","40","right","74","1","1262","1.3963043879039","0","0","1","0","do not exclude"
"1","35","0","../static/images/invador3.png","1","80","2","40","left","70","1","1328","1.69244788661247","0","0","1","0","do not exclude"
"1","36","0","../static/images/invador3.png","1","80","2","40","left","70","1","1332","1.7103959774433","0","0","1","0","do not exclude"
"1","37","0","../static/images/invador1.png","4","20","8","2.5","right","74","1","815","-0.609394762440515","1","0","1","0","do not exclude"
"1","38","0","../static/images/invador3.png","1","80","2","40","right","74","1","1164","0.956576162548749","0","0","1","0","do not exclude"
"1","39","0","../static/images/invador3.png","1","80","2","40","left","70","1","1452","2.24883870236797","0","0","1","0","do not exclude"
"1","40","0","../static/images/invador4.png","3","80","8","10","right","70","-1","1048","0.436081528454896","0","0","1","0","do not exclude"
"1","41","0","../static/images/invador2.png","2","20","2","10","left","74","-1","1228","1.24374561584191","0","0","1","0","do not exclude"
"1","42","0","../static/images/invador3.png","1","80","2","40","right","74","1","1304","1.58475934162754","0","0","1","0","do not exclude"
"1","43","0","../static/images/invador2.png","2","20","2","10","left","74","-1","906","-0.201075696039303","0","0","1","0","do not exclude"
"1","44","0","../static/images/invador1.png","4","20","8","2.5","right","70","-1","782","-0.757466511794801","0","0","1","0","do not exclude"
"1","45","0","../static/images/invador3.png","1","80","2","40","left","70","1","1384","1.94372115824399","0","0","1","0","do not exclude"
"1","46","0","../static/images/invador4.png","3","80","8","10","right","70","-1","954","0.0143013939305671","0","0","1","0","do not exclude"
"1","47","0","../static/images/invador3.png","1","80","2","40","left","74","-1","753","-0.887590170318265","2","0","1","0","do not exclude"
"1","48","0","../static/images/invador3.png","1","80","2","40","left","70","1","1212","1.17195325251862","0","0","1","0","do not exclude"
"1","49","0","../static/images/invador3.png","1","80","2","40","right","70","-1","700","-1.12540237382666","2","0","1","0","do not exclude"
"1","50","0","../static/images/invador4.png","3","80","8","10","left","74","-1","1032","0.364289165131606","0","0","1","0","do not exclude"
"1","51","0","../static/images/invador2.png","2","20","2","10","left","74","-1","1086","0.60658839134771","0","0","1","0","do not exclude"
"1","52","0","../static/images/invador1.png","4","20","8","2.5","right","70","-1","990","0.17583421140797","0","0","1","0","do not exclude"
"1","53","0","../static/images/invador3.png","1","80","2","40","right","74","1","1172","0.992472344210395","0","0","1","0","do not exclude"
"1","54","0","../static/images/invador3.png","1","80","2","40","left","74","-1","706","-1.09848023758043","2","0","1","0","do not exclude"
"1","55","0","../static/images/invador3.png","1","80","2","40","right","74","1","833","-0.528628353701814","1","0","1","0","do not exclude"
"1","56","0","../static/images/invador1.png","4","20","8","2.5","left","74","-1","1077","0.56620518697836","0","0","1","0","do not exclude"
"1","57","0","../static/images/invador3.png","1","80","2","40","left","70","1","1216","1.18990134334944","0","0","1","0","do not exclude"
"1","58","0","../static/images/invador3.png","1","80","2","40","left","74","-1","529","-1.89268325684433","2","0","1","0","do not exclude"
"1","59","0","../static/images/invador3.png","1","80","2","40","left","74","-1","4","-4.24837017838978","2","0","1","0","do not exclude"
"1","60","0","../static/images/invador3.png","1","80","2","40","left","70","1","1383","1.93923413553628","1","0","1","0","do not exclude"
"1","61","0","../static/images/invador4.png","3","80","8","10","right","70","-1","1122","0.768121208825113","0","0","1","0","do not exclude"
"1","62","0","../static/images/invador2.png","2","20","2","10","right","70","-1","1212","1.17195325251862","0","0","1","0","do not exclude"
"1","63","0","../static/images/invador3.png","1","80","2","40","left","70","1","1288","1.51296697830425","0","0","1","0","do not exclude"
"1","64","0","../static/images/invador2.png","2","20","2","10","right","70","-1","926","-0.111335241885191","0","0","1","0","do not exclude"
"1","65","0","../static/images/invador3.png","1","80","2","40","right","74","1","1307","1.59822040975065","0","0","1","0","do not exclude"
"1","66","0","../static/images/invador3.png","1","80","2","40","left","70","1","1225","1.23028454771879","0","0","1","0","do not exclude"
"1","67","0","../static/images/invador1.png","4","20","8","2.5","right","70","-1","799","-0.681187125763806","0","0","1","0","do not exclude"
"1","68","0","../static/images/invador3.png","1","80","2","40","right","74","1","1272","1.44117461498096","0","0","1","0","do not exclude"
"1","69","0","../static/images/invador4.png","3","80","8","10","left","70","1","1033","0.368776187839312","1","0","1","0","do not exclude"
"1","70","0","../static/images/invador2.png","2","20","2","10","right","70","-1","992","0.184808256823381","0","0","1","0","do not exclude"
"1","71","0","../static/images/invador3.png","1","80","2","40","left","70","1","1322","1.66552575036624","0","0","1","0","do not exclude"
"1","72","0","../static/images/invador3.png","1","80","2","40","left","70","1","1277","1.46360972851949","0","0","1","0","do not exclude"
"1","73","0","../static/images/invador3.png","1","80","2","40","left","70","1","1295","1.54437613725819","0","0","1","0","do not exclude"
"1","74","0","../static/images/invador4.png","3","80","8","10","right","70","-1","899","-0.232484854993243","0","0","1","0","do not exclude"
"1","75","0","../static/images/invador1.png","4","20","8","2.5","right","70","-1","953","0.00981437122286147","2","0","1","0","do not exclude"
"1","76","0","../static/images/invador3.png","1","80","2","40","left","70","1","3","-4.25285720109749","0","0","1","0","do not exclude"
"1","77","0","../static/images/invador2.png","2","20","2","10","left","74","-1","975","0.108528870792385","0","0","1","0","do not exclude"
"1","78","0","../static/images/invador3.png","1","80","2","40","left","70","1","1388","1.96166924907481","0","0","1","0","do not exclude"
"1","79","0","../static/images/invador3.png","1","80","2","40","left","70","1","1032","0.364289165131606","1","0","1","0","do not exclude"
"1","80","0","../static/images/invador4.png","3","80","8","10","right","70","-1","849","-0.456835990378524","0","0","1","0","do not exclude"
"1","81","0","../static/images/invador3.png","1","80","2","40","right","74","1","1271","1.43668759227325","0","0","1","0","do not exclude"
"1","82","0","../static/images/invador3.png","1","80","2","40","left","74","-1","971","0.0905807799615628","2","0","1","0","do not exclude"
"1","83","0","../static/images/invador1.png","4","20","8","2.5","left","74","-1","1035","0.377750233254723","0","0","1","0","do not exclude"
"1","84","0","../static/images/invador3.png","1","80","2","40","left","70","1","1272","1.44117461498096","0","0","1","0","do not exclude"
"1","85","0","../static/images/invador3.png","1","80","2","40","left","70","1","1266","1.41425247873472","0","0","1","0","do not exclude"
"1","86","0","../static/images/invador4.png","3","80","8","10","right","70","-1","825","-0.564524535363459","2","0","1","0","do not exclude"
"1","87","0","../static/images/invador2.png","2","20","2","10","right","70","-1","1137","0.835426549440697","2","0","1","0","do not exclude"
"1","88","0","../static/images/invador3.png","1","80","2","40","left","70","1","1360","1.83603261325905","0","0","1","0","do not exclude"
"1","89","0","../static/images/invador1.png","4","20","8","2.5","left","74","-1","724","-1.01771382884173","0","0","1","0","do not exclude"
"1","90","0","../static/images/invador3.png","1","80","2","40","right","74","1","1119","0.754660140701996","0","0","1","0","do not exclude"
"1","91","0","../static/images/invador1.png","4","20","8","2.5","right","74","1","1174","1.00144638962581","1","0","1","0","do not exclude"
"1","92","0","../static/images/invador2.png","2","20","2","10","left","70","1","943","-0.0350558558541948","1","0","1","0","do not exclude"
"1","93","0","../static/images/invador3.png","1","80","2","40","right","74","1","881","-0.313251263731944","1","0","1","0","do not exclude"
"1","94","0","../static/images/invador3.png","1","80","2","40","left","70","1","1179","1.02388150316433","0","0","1","0","do not exclude"
"1","95","0","../static/images/invador4.png","3","80","8","10","right","74","1","1022","0.31941893805455","1","0","1","0","do not exclude"
"1","96","0","../static/images/invador3.png","1","80","2","40","right","74","1","1010","0.265574665562082","0","0","1","0","do not exclude"
"1","97","0","../static/images/invador3.png","1","80","2","40","right","74","1","1157","0.92516700359481","0","0","1","0","do not exclude"
"1","98","0","../static/images/invador2.png","2","20","2","10","left","74","-1","901","-0.223510809577831","2","0","1","0","do not exclude"
"1","99","0","../static/images/invador3.png","1","80","2","40","right","74","1","1374","1.89885093116693","0","0","1","0","do not exclude"
"1","100","0","../static/images/invador3.png","1","80","2","40","left","70","1","1083","0.593127323224593","0","0","1","0","do not exclude"
"1","101","0","../static/images/invador3.png","1","80","2","40","right","74","1","1159","0.934141049010221","1","0","1","0","do not exclude"
"1","102","0","../static/images/invador1.png","4","20","8","2.5","left","70","1","1197","1.10464791190304","1","0","1","0","do not exclude"
"1","103","0","../static/images/invador3.png","1","80","2","40","left","74","-1","876","-0.335686377270472","2","0","1","0","do not exclude"
"1","104","0","../static/images/invador4.png","3","80","8","10","left","74","-1","987","0.162373143284853","0","0","1","0","do not exclude"
"1","105","0","../static/images/invador3.png","1","80","2","40","left","70","1","1207","1.14951813898009","0","0","1","0","do not exclude"
"1","106","0","../static/images/invador3.png","1","80","2","40","left","70","1","1115","0.736712049871174","0","0","1","0","do not exclude"
"1","107","0","../static/images/invador3.png","1","80","2","40","right","74","1","1027","0.341854051593078","1","0","1","0","do not exclude"
"1","108","0","../static/images/invador4.png","3","80","8","10","right","70","-1","1624","3.02060660809334","0","0","1","0","do not exclude"
"1","109","0","../static/images/invador3.png","1","80","2","40","right","74","1","984","0.148912075161736","0","0","1","0","do not exclude"
"1","110","0","../static/images/invador1.png","4","20","8","2.5","right","70","-1","977","0.117502916207797","0","0","1","0","do not exclude"
"1","111","0","../static/images/invador2.png","2","20","2","10","right","70","-1","649","-1.35424053191965","2","0","1","0","do not exclude"
"1","112","0","../static/images/invador4.png","3","80","8","10","right","70","-1","786","-0.739518420963979","2","0","1","0","do not exclude"
"1","113","0","../static/images/invador3.png","1","80","2","40","right","74","1","1289","1.51745400101195","0","0","1","0","do not exclude"
"1","114","0","../static/images/invador3.png","1","80","2","40","left","70","1","1000","0.220704438485026","0","0","1","0","do not exclude"
"1","115","0","../static/images/invador3.png","1","80","2","40","left","70","1","760","-0.856181011364325","1","0","1","0","do not exclude"
"1","116","0","../static/images/invador2.png","2","20","2","10","right","70","-1","1027","0.341854051593078","0","0","1","0","do not exclude"
"1","117","0","../static/images/invador3.png","1","80","2","40","right","74","1","1054","0.46300366470113","0","0","1","0","do not exclude"
"1","118","0","../static/images/invador1.png","4","20","8","2.5","left","74","-1","790","-0.721570330133156","0","0","1","0","do not exclude"
"1","119","0","../static/images/invador3.png","1","80","2","40","right","74","1","1156","0.920679980887104","0","0","1","0","do not exclude"
"1","120","0","../static/images/invador2.png","2","20","2","10","left","74","-1","931","-0.0889001283466624","2","0","1","0","do not exclude"
"1","121","0","../static/images/invador4.png","3","80","8","10","right","70","-1","1023","0.323905960762256","0","0","1","0","do not exclude"
"1","122","0","../static/images/invador3.png","1","80","2","40","right","74","1","1139","0.844400594856109","0","0","1","0","do not exclude"
"1","123","0","../static/images/invador1.png","4","20","8","2.5","right","70","-1","851","-0.447861944963113","0","0","1","0","do not exclude"
"1","124","0","../static/images/invador3.png","1","80","2","40","right","74","1","791","-0.717083307425451","1","0","1","0","do not exclude"
"1","125","0","../static/images/invador3.png","1","80","2","40","right","74","1","1302","1.57578529621213","0","0","1","0","do not exclude"
"1","126","0","../static/images/invador3.png","1","80","2","40","right","74","1","1299","1.56232422808901","0","0","1","0","do not exclude"
"1","127","0","../static/images/invador3.png","1","80","2","40","right","74","1","1198","1.10913493461074","0","0","1","0","do not exclude"
"1","128","0","../static/images/invador3.png","1","80","2","40","left","70","1","1135","0.826452504025286","0","0","1","0","do not exclude"
"1","129","0","../static/images/invador3.png","1","80","2","40","right","74","1","1117","0.745686095286585","0","0","1","0","do not exclude"
"1","130","0","../static/images/invador1.png","4","20","8","2.5","right","70","-1","927","-0.106848219177485","0","0","1","0","do not exclude"
"1","131","0","../static/images/invador2.png","2","20","2","10","left","74","-1","711","-1.0760451240419","2","0","1","0","do not exclude"
"1","132","0","../static/images/invador4.png","3","80","8","10","right","70","-1","978","0.121989938915502","0","0","1","0","do not exclude"
"1","133","0","../static/images/invador1.png","4","20","8","2.5","right","70","-1","957","0.027762462053684","0","0","1","0","do not exclude"
"1","134","0","../static/images/invador3.png","1","80","2","40","left","70","1","1270","1.43220056956555","0","0","1","0","do not exclude"
"1","135","0","../static/images/invador2.png","2","20","2","10","right","70","-1","882","-0.308764241024238","0","0","1","0","do not exclude"
"1","136","0","../static/images/invador3.png","1","80","2","40","left","70","1","727","-1.00425276071861","1","0","1","0","do not exclude"
"1","137","0","../static/images/invador3.png","1","80","2","40","left","70","1","1095","0.646971595717061","0","0","1","0","do not exclude"
"1","138","0","../static/images/invador4.png","3","80","8","10","right","70","-1","924","-0.120309287300602","0","0","1","0","do not exclude"
"1","139","0","../static/images/invador3.png","1","80","2","40","left","70","1","1440","2.1949944298755","0","0","1","0","do not exclude"
"1","140","0","../static/images/invador3.png","1","80","2","40","right","70","-1","873","-0.349147445393589","2","0","1","0","do not exclude"
"1","141","0","../static/images/invador3.png","1","80","2","40","right","74","1","758","-0.865155056779736","1","0","1","0","do not exclude"
"1","142","0","../static/images/invador3.png","1","80","2","40","left","70","1","951","0.000840325807450209","0","0","1","0","do not exclude"
"1","143","0","../static/images/invador1.png","4","20","8","2.5","left","74","-1","971","0.0905807799615628","0","0","1","0","do not exclude"
"1","144","0","../static/images/invador3.png","1","80","2","40","left","70","1","876","-0.335686377270472","1","0","1","0","do not exclude"
"1","145","0","../static/images/invador2.png","2","20","2","10","right","70","-1","1004","0.238652529315849","0","0","1","0","do not exclude"
"1","146","0","../static/images/invador4.png","3","80","8","10","right","70","-1","891","-0.268381036654888","0","0","1","0","do not exclude"
"1","147","0","../static/images/invador2.png","2","20","2","10","left","74","-1","880","-0.31773828643965","0","0","1","0","do not exclude"
"1","148","0","../static/images/invador1.png","4","20","8","2.5","right","74","1","725","-1.01322680613402","1","0","1","0","do not exclude"
"1","149","0","../static/images/invador3.png","1","80","2","40","left","70","1","1059","0.485438778239658","0","0","1","0","do not exclude"
"1","150","0","../static/images/invador3.png","1","80","2","40","right","74","1","965","0.063658643715329","0","0","1","0","do not exclude"
"1","151","0","../static/images/invador4.png","3","80","8","10","left","74","-1","975","0.108528870792385","0","0","1","0","do not exclude"
"1","152","0","../static/images/invador3.png","1","80","2","40","right","74","1","787","-0.735031398256273","1","0","1","0","do not exclude"
"1","153","0","../static/images/invador3.png","1","80","2","40","right","74","1","903","-0.21453676416242","0","0","1","0","do not exclude"
"1","154","0","../static/images/invador1.png","4","20","8","2.5","right","74","1","1448","2.23089061153715","1","0","1","0","do not exclude"
"1","155","2","../static/images/invador1.png","4","20","8","2.5","right","74","1","1227","1.2392585931342","0","0","1","0","do not exclude"
"1","156","2","../static/images/invador1.png","4","20","8","2.5","left","74","-1","1074","0.552744118855243","0","0","1","0","do not exclude"
"1","157","2","../static/images/invador1.png","4","20","8","2.5","right","70","-1","1000","0.220704438485026","0","0","1","0","do not exclude"
"1","158","2","../static/images/invador1.png","4","20","8","2.5","left","74","-1","960","0.0412235301768009","2","0","1","0","do not exclude"
"1","159","2","../static/images/invador1.png","4","20","8","2.5","left","74","-1","862","-0.398504695178351","0","0","1","0","do not exclude"
"1","160","2","../static/images/invador1.png","4","20","8","2.5","left","74","-1","768","-0.82028482970268","0","0","1","0","do not exclude"
"1","161","2","../static/images/invador1.png","4","20","8","2.5","right","74","1","893","-0.259406991239476","0","0","1","0","do not exclude"
"1","162","2","../static/images/invador1.png","4","20","8","2.5","left","74","-1","716","-1.05361001050337","2","0","1","0","do not exclude"
"1","163","2","../static/images/invador1.png","4","20","8","2.5","right","74","1","941","-0.0440299012696061","0","0","1","0","do not exclude"
"1","164","2","../static/images/invador1.png","4","20","8","2.5","left","74","-1","748","-0.910025283856793","2","0","1","0","do not exclude"
"1","165","2","../static/images/invador1.png","4","20","8","2.5","right","74","1","941","-0.0440299012696061","0","0","1","0","do not exclude"
"1","166","2","../static/images/invador1.png","4","20","8","2.5","right","70","-1","1004","0.238652529315849","2","0","1","0","do not exclude"
"1","167","2","../static/images/invador1.png","4","20","8","2.5","right","70","-1","626","-1.45744205419688","2","0","1","0","do not exclude"
"1","168","2","../static/images/invador1.png","4","20","8","2.5","left","70","1","884","-0.299790195608827","0","0","1","0","do not exclude"
"1","169","2","../static/images/invador1.png","4","20","8","2.5","left","70","1","930","-0.093387151054368","0","0","1","0","do not exclude"
"1","170","2","../static/images/invador1.png","4","20","8","2.5","right","74","1","661","-1.30039625942718","0","0","1","0","do not exclude"
"1","171","2","../static/images/invador1.png","4","20","8","2.5","right","74","1","893","-0.259406991239476","0","0","1","0","do not exclude"
"1","172","2","../static/images/invador1.png","4","20","8","2.5","left","70","1","827","-0.555550489948048","0","0","1","0","do not exclude"
"1","173","2","../static/images/invador1.png","4","20","8","2.5","right","74","1","713","-1.06707107862649","0","0","1","0","do not exclude"
"1","174","2","../static/images/invador1.png","4","20","8","2.5","right","74","1","1062","0.498899846362775","0","0","1","0","do not exclude"
"1","175","2","../static/images/invador1.png","4","20","8","2.5","left","70","1","793","-0.708109262010039","0","0","1","0","do not exclude"
"1","176","2","../static/images/invador1.png","4","20","8","2.5","right","74","1","648","-1.35872755462736","0","0","1","0","do not exclude"
"1","177","2","../static/images/invador1.png","4","20","8","2.5","right","74","1","1460","2.28473488402962","0","0","1","0","do not exclude"
"1","178","2","../static/images/invador1.png","4","20","8","2.5","right","74","1","732","-0.981817647180083","0","0","1","0","do not exclude"
"1","179","2","../static/images/invador1.png","4","20","8","2.5","left","70","1","674","-1.24206496422701","1","0","1","0","do not exclude"
"1","180","2","../static/images/invador1.png","4","20","8","2.5","left","70","1","817","-0.600420717025104","1","0","1","0","do not exclude"
"1","181","2","../static/images/invador1.png","4","20","8","2.5","left","70","1","802","-0.667726057640689","0","0","1","0","do not exclude"
"1","182","2","../static/images/invador1.png","4","20","8","2.5","left","70","1","752","-0.89207719302597","0","0","1","0","do not exclude"
"1","183","1","../static/images/invador4.png","3","80","8","10","right","74","1","865","-0.385043627055234","1","0","1","0","do not exclude"
"1","184","1","../static/images/invador1.png","4","20","8","2.5","left","70","1","1106","0.696328845501823","1","0","1","0","do not exclude"
"1","185","1","../static/images/invador1.png","4","20","8","2.5","right","70","-1","898","-0.236971877700948","0","0","1","0","do not exclude"
"1","186","1","../static/images/invador2.png","2","20","2","10","right","74","1","1039","0.395698324085546","0","0","1","0","do not exclude"
"1","187","1","../static/images/invador1.png","4","20","8","2.5","right","74","1","948","-0.0126207423156667","1","0","1","0","do not exclude"
"1","188","1","../static/images/invador1.png","4","20","8","2.5","right","70","-1","820","-0.586959648901987","0","0","1","0","do not exclude"
"1","189","1","../static/images/invador1.png","4","20","8","2.5","right","70","-1","878","-0.326712331855061","0","0","1","0","do not exclude"
"1","190","1","../static/images/invador1.png","4","20","8","2.5","right","70","-1","947","-0.0171077650233723","0","0","1","0","do not exclude"
"1","191","1","../static/images/invador4.png","3","80","8","10","right","74","1","1090","0.624536482178533","0","0","1","0","do not exclude"
"1","192","1","../static/images/invador3.png","1","80","2","40","left","70","1","1140","0.848887617563814","0","0","1","0","do not exclude"
"1","193","1","../static/images/invador2.png","2","20","2","10","left","74","-1","664","-1.28693519130407","0","0","1","0","do not exclude"
"1","194","1","../static/images/invador1.png","4","20","8","2.5","left","74","-1","872","-0.353634468101295","2","0","1","0","do not exclude"
"1","195","1","../static/images/invador1.png","4","20","8","2.5","left","74","-1","1017","0.296983824516022","0","0","1","0","do not exclude"
"1","196","1","../static/images/invador1.png","4","20","8","2.5","left","74","-1","902","-0.219023786870126","0","0","1","0","do not exclude"
"1","197","1","../static/images/invador1.png","4","20","8","2.5","left","74","-1","846","-0.470297058501641","0","0","1","0","do not exclude"
"1","198","1","../static/images/invador4.png","3","80","8","10","left","70","1","1011","0.270061688269788","0","0","1","0","do not exclude"
"1","199","1","../static/images/invador2.png","2","20","2","10","right","74","1","628","-1.44846800878147","1","0","1","0","do not exclude"
"1","200","1","../static/images/invador3.png","1","80","2","40","left","70","1","683","-1.20168175985766","1","0","1","0","do not exclude"
"1","201","1","../static/images/invador1.png","4","20","8","2.5","right","74","1","1079","0.575179232393771","0","0","1","0","do not exclude"
"1","202","1","../static/images/invador1.png","4","20","8","2.5","right","70","-1","849","-0.456835990378524","0","0","1","0","do not exclude"
"1","203","1","../static/images/invador3.png","1","80","2","40","right","70","-1","807","-0.645290944102161","2","0","1","0","do not exclude"
"1","204","1","../static/images/invador1.png","4","20","8","2.5","right","70","-1","861","-0.402991717886057","0","0","1","0","do not exclude"
"1","205","1","../static/images/invador1.png","4","20","8","2.5","right","70","-1","787","-0.735031398256273","0","0","1","0","do not exclude"
"1","206","1","../static/images/invador1.png","4","20","8","2.5","left","70","1","947","-0.0171077650233723","1","0","1","0","do not exclude"
"1","207","1","../static/images/invador4.png","3","80","8","10","right","74","1","944","-0.0305688331464892","0","0","1","0","do not exclude"
"1","208","1","../static/images/invador1.png","4","20","8","2.5","left","74","-1","789","-0.726057352840862","0","0","1","0","do not exclude"
"1","209","1","../static/images/invador2.png","2","20","2","10","left","70","1","1172","0.992472344210395","0","0","1","0","do not exclude"
"1","210","1","../static/images/invador1.png","4","20","8","2.5","right","70","-1","856","-0.425426831424585","0","0","1","0","do not exclude"
"1","211","1","../static/images/invador4.png","3","80","8","10","right","74","1","815","-0.609394762440515","0","0","1","0","do not exclude"
"1","212","1","../static/images/invador1.png","4","20","8","2.5","left","74","-1","1120","0.759147163409702","0","0","1","0","do not exclude"
"1","213","1","../static/images/invador1.png","4","20","8","2.5","left","74","-1","907","-0.196588673331598","0","0","1","0","do not exclude"
"1","214","1","../static/images/invador3.png","1","80","2","40","right","74","1","927","-0.106848219177485","0","0","1","0","do not exclude"
"1","215","1","../static/images/invador2.png","2","20","2","10","left","70","1","1183","1.04182959399516","0","0","1","0","do not exclude"
"1","216","1","../static/images/invador1.png","4","20","8","2.5","right","70","-1","825","-0.564524535363459","0","0","1","0","do not exclude"
"1","217","1","../static/images/invador1.png","4","20","8","2.5","right","70","-1","801","-0.672213080348394","0","0","1","0","do not exclude"
"1","218","1","../static/images/invador4.png","3","80","8","10","right","74","1","978","0.121989938915502","1","0","1","0","do not exclude"
"1","219","1","../static/images/invador3.png","1","80","2","40","right","74","1","1075","0.557231141562948","0","0","1","0","do not exclude"
"1","220","1","../static/images/invador1.png","4","20","8","2.5","right","70","-1","811","-0.627342853271338","0","0","1","0","do not exclude"
"1","221","1","../static/images/invador1.png","4","20","8","2.5","left","74","-1","771","-0.806823761579563","0","0","1","0","do not exclude"
"1","222","1","../static/images/invador1.png","4","20","8","2.5","left","74","-1","668","-1.26898710047324","0","0","1","0","do not exclude"
"1","223","1","../static/images/invador2.png","2","20","2","10","left","70","1","1190","1.0732387529491","0","0","1","0","do not exclude"
"1","224","1","../static/images/invador2.png","2","20","2","10","right","74","1","941","-0.0440299012696061","1","0","1","0","do not exclude"
"1","225","1","../static/images/invador1.png","4","20","8","2.5","left","74","-1","752","-0.89207719302597","2","0","1","0","do not exclude"
"1","226","1","../static/images/invador1.png","4","20","8","2.5","left","74","-1","764","-0.838232920533503","0","0","1","0","do not exclude"
"1","227","1","../static/images/invador1.png","4","20","8","2.5","left","74","-1","824","-0.569011558071165","0","0","1","0","do not exclude"
"1","228","1","../static/images/invador3.png","1","80","2","40","right","74","1","1253","1.35592118353455","0","0","1","0","do not exclude"
"1","229","1","../static/images/invador4.png","3","80","8","10","right","74","1","712","-1.0715581013342","1","0","1","0","do not exclude"
"1","230","1","../static/images/invador1.png","4","20","8","2.5","left","74","-1","837","-0.510680262870992","0","0","1","0","do not exclude"
"1","231","1","../static/images/invador2.png","2","20","2","10","left","70","1","824","-0.569011558071165","1","0","1","0","do not exclude"
"1","232","1","../static/images/invador1.png","4","20","8","2.5","left","74","-1","723","-1.02220085154943","0","0","1","0","do not exclude"
"1","233","1","../static/images/invador4.png","3","80","8","10","left","70","1","1111","0.718763959040351","1","0","1","0","do not exclude"
"1","234","1","../static/images/invador3.png","1","80","2","40","right","74","1","994","0.193782302238792","0","0","1","0","do not exclude"
"1","235","1","../static/images/invador1.png","4","20","8","2.5","right","70","-1","791","-0.717083307425451","0","0","1","0","do not exclude"
"1","236","1","../static/images/invador1.png","4","20","8","2.5","right","70","-1","955","0.0187884166382727","0","0","1","0","do not exclude"
"1","237","1","../static/images/invador1.png","4","20","8","2.5","left","70","1","668","-1.26898710047324","1","0","1","0","do not exclude"
"1","238","1","../static/images/invador1.png","4","20","8","2.5","right","74","1","891","-0.268381036654888","1","0","1","0","do not exclude"
"1","239","1","../static/images/invador3.png","1","80","2","40","left","70","1","695","-1.14783748736519","0","0","1","0","do not exclude"
"1","240","1","../static/images/invador2.png","2","20","2","10","right","74","1","911","-0.178640582500775","0","0","1","0","do not exclude"
"1","241","1","../static/images/invador1.png","4","20","8","2.5","right","74","1","795","-0.699135216594628","1","0","1","0","do not exclude"
"1","242","1","../static/images/invador4.png","3","80","8","10","right","74","1","827","-0.555550489948048","1","0","1","0","do not exclude"
"1","243","1","../static/images/invador1.png","4","20","8","2.5","right","74","1","1194","1.09118684377992","1","0","1","0","do not exclude"
"1","244","1","../static/images/invador1.png","4","20","8","2.5","right","74","1","706","-1.09848023758043","1","0","1","0","do not exclude"
"1","245","1","../static/images/invador2.png","2","20","2","10","left","74","-1","980","0.130963984330913","2","0","1","0","do not exclude"
"1","246","1","../static/images/invador1.png","4","20","8","2.5","right","70","-1","788","-0.730544375548568","0","0","1","0","do not exclude"
"1","247","1","../static/images/invador1.png","4","20","8","2.5","right","70","-1","821","-0.582472626194282","0","0","1","0","do not exclude"
"1","248","1","../static/images/invador1.png","4","20","8","2.5","left","74","-1","916","-0.156205468962247","0","0","1","0","do not exclude"
"1","249","1","../static/images/invador1.png","4","20","8","2.5","right","70","-1","810","-0.631829875979044","0","0","1","0","do not exclude"
"1","250","1","../static/images/invador3.png","1","80","2","40","left","70","1","989","0.171347188700264","0","0","1","0","do not exclude"
"1","251","1","../static/images/invador4.png","3","80","8","10","right","74","1","926","-0.111335241885191","0","0","1","0","do not exclude"
"1","252","1","../static/images/invador1.png","4","20","8","2.5","left","74","-1","763","-0.842719943241208","0","0","1","0","do not exclude"
"1","253","1","../static/images/invador1.png","4","20","8","2.5","right","70","-1","863","-0.394017672470645","0","0","1","0","do not exclude"
"1","254","1","../static/images/invador1.png","4","20","8","2.5","right","70","-1","839","-0.50170621745558","0","0","1","0","do not exclude"
"1","255","1","../static/images/invador4.png","3","80","8","10","left","70","1","1314","1.62962956870459","0","0","1","0","do not exclude"
"1","256","1","../static/images/invador1.png","4","20","8","2.5","left","74","-1","801","-0.672213080348394","0","0","1","0","do not exclude"
"1","257","1","../static/images/invador2.png","2","20","2","10","left","70","1","966","0.0681456664230347","1","0","1","0","do not exclude"
"1","258","1","../static/images/invador3.png","1","80","2","40","left","70","1","1030","0.355315119716195","0","0","1","0","do not exclude"
"1","259","1","../static/images/invador4.png","3","80","8","10","left","70","1","1347","1.77770131805888","0","0","1","0","do not exclude"
"1","260","1","../static/images/invador2.png","2","20","2","10","right","74","1","762","-0.847206965948914","1","0","1","0","do not exclude"
"1","261","1","../static/images/invador1.png","4","20","8","2.5","left","70","1","779","-0.770927579917918","1","0","1","0","do not exclude"
"1","262","1","../static/images/invador1.png","4","20","8","2.5","right","70","-1","900","-0.227997832285537","2","0","1","0","do not exclude"
"1","263","1","../static/images/invador1.png","4","20","8","2.5","left","70","1","748","-0.910025283856793","1","0","1","0","do not exclude"
"1","264","1","../static/images/invador3.png","1","80","2","40","left","70","1","1097","0.655945641132472","0","0","1","0","do not exclude"
"1","265","1","../static/images/invador1.png","4","20","8","2.5","right","70","-1","844","-0.479271103917052","2","0","1","0","do not exclude"
"1","266","1","../static/images/invador3.png","1","80","2","40","left","70","1","1050","0.445055573870308","0","0","1","0","do not exclude"
"1","267","1","../static/images/invador1.png","4","20","8","2.5","right","70","-1","791","-0.717083307425451","0","0","1","0","do not exclude"
"1","268","1","../static/images/invador1.png","4","20","8","2.5","left","74","-1","641","-1.3901367135813","0","0","1","0","do not exclude"
"1","269","1","../static/images/invador2.png","2","20","2","10","right","74","1","951","0.000840325807450209","1","0","1","0","do not exclude"
"1","270","1","../static/images/invador1.png","4","20","8","2.5","right","70","-1","847","-0.465810035793935","0","0","1","0","do not exclude"
"1","271","1","../static/images/invador1.png","4","20","8","2.5","left","74","-1","702","-1.11642832841125","0","0","1","0","do not exclude"
"1","272","1","../static/images/invador4.png","3","80","8","10","right","74","1","1207","1.14951813898009","0","0","1","0","do not exclude"
"1","273","1","../static/images/invador4.png","3","80","8","10","left","70","1","1276","1.45912270581178","0","0","1","0","do not exclude"
"1","274","1","../static/images/invador1.png","4","20","8","2.5","left","74","-1","844","-0.479271103917052","0","0","1","0","do not exclude"
"1","275","1","../static/images/invador1.png","4","20","8","2.5","left","74","-1","654","-1.33180541838112","0","0","1","0","do not exclude"
"1","276","1","../static/images/invador1.png","4","20","8","2.5","left","74","-1","649","-1.35424053191965","0","0","1","0","do not exclude"
"1","277","1","../static/images/invador3.png","1","80","2","40","right","74","1","1181","1.03285554857975","0","0","1","0","do not exclude"
"1","278","1","../static/images/invador2.png","2","20","2","10","left","70","1","1178","1.01939448045663","0","0","1","0","do not exclude"
"1","279","1","../static/images/invador1.png","4","20","8","2.5","left","74","-1","775","-0.788875670748741","0","0","1","0","do not exclude"
"1","280","1","../static/images/invador1.png","4","20","8","2.5","right","70","-1","796","-0.694648193886922","0","0","1","0","do not exclude"
"1","281","1","../static/images/invador1.png","4","20","8","2.5","left","74","-1","598","-1.58307869001264","0","0","1","0","do not exclude"
"1","282","1","../static/images/invador4.png","3","80","8","10","left","70","1","1156","0.920679980887104","1","0","1","0","do not exclude"
"1","283","1","../static/images/invador3.png","1","80","2","40","left","70","1","1193","1.08669982107221","0","0","1","0","do not exclude"
"2","0","1","../static/images/invador2.png","1","80","2","40","left","70","1","1390","1.78207659425499","0","0","2","0","do not exclude"
"2","1","1","../static/images/invador3.png","3","80","8","10","left","70","1","1376","1.71338659719061","0","0","2","0","do not exclude"
"2","2","1","../static/images/invador1.png","4","20","8","2.5","right","74","1","1372","1.69376088374365","0","0","2","0","do not exclude"
"2","3","1","../static/images/invador1.png","4","20","8","2.5","left","74","-1","1348","1.57600660306187","0","0","2","0","do not exclude"
"2","4","1","../static/images/invador1.png","4","20","8","2.5","left","74","-1","1272","1.20311804756956","0","0","2","0","do not exclude"
"2","5","1","../static/images/invador1.png","4","20","8","2.5","right","70","-1","1112","0.418089509691022","1","0","2","0","do not exclude"
"2","6","1","../static/images/invador4.png","2","20","2","10","left","74","-1","22","-4.92991740460653","0","0","2","0","do not exclude"
"2","7","1","../static/images/invador1.png","4","20","8","2.5","right","74","1","1406","1.86057944804284","0","0","2","0","do not exclude"
"2","8","1","../static/images/invador3.png","3","80","8","10","right","74","1","1432","1.9881465854481","0","0","2","0","do not exclude"
"2","9","1","../static/images/invador1.png","4","20","8","2.5","left","70","1","834","-0.945897574872942","1","0","2","0","do not exclude"
"2","10","1","../static/images/invador4.png","2","20","2","10","left","70","1","1330","1.48769089255053","0","0","2","0","do not exclude"
"2","11","1","../static/images/invador2.png","1","80","2","40","left","70","1","1478","2.21384229008818","0","0","2","0","do not exclude"
"2","12","1","../static/images/invador1.png","4","20","8","2.5","right","70","-1","1460","2.12552657957685","0","0","2","0","do not exclude"
"2","13","1","../static/images/invador1.png","4","20","8","2.5","right","74","1","914","-0.553383305933672","1","0","2","0","do not exclude"
"2","14","1","../static/images/invador1.png","4","20","8","2.5","left","74","-1","1194","0.820416635353773","0","0","2","0","do not exclude"
"2","15","1","../static/images/invador1.png","4","20","8","2.5","right","70","-1","1082","0.270896658838795","0","0","2","0","do not exclude"
"2","16","1","../static/images/invador4.png","2","20","2","10","left","70","1","1332","1.49750374927401","0","0","2","0","do not exclude"
"2","17","1","../static/images/invador1.png","4","20","8","2.5","right","70","-1","1178","0.741913781565919","0","0","2","0","do not exclude"
"2","18","1","../static/images/invador3.png","3","80","8","10","right","74","1","1246","1.0755509101643","0","0","2","0","do not exclude"
"2","19","1","../static/images/invador2.png","1","80","2","40","left","74","-1","1618","2.90074226073191","0","0","2","0","do not exclude"
"2","20","1","../static/images/invador1.png","4","20","8","2.5","right","70","-1","1270","1.19330519084608","0","0","2","0","do not exclude"
"2","21","1","../static/images/invador1.png","4","20","8","2.5","left","74","-1","1000","-0.131430466823957","0","0","2","0","do not exclude"
"2","22","1","../static/images/invador1.png","4","20","8","2.5","left","74","-1","1162","0.663410927778065","0","0","2","0","do not exclude"
"2","23","1","../static/images/invador2.png","1","80","2","40","right","70","-1","1770","3.64651937171652","0","0","2","0","do not exclude"
"2","24","1","../static/images/invador3.png","3","80","8","10","left","74","-1","862","-0.808517580744198","2","0","2","0","do not exclude"
"2","25","1","../static/images/invador1.png","4","20","8","2.5","right","70","-1","1390","1.78207659425499","0","0","2","0","do not exclude"
"2","26","1","../static/images/invador4.png","2","20","2","10","left","74","-1","1364","1.65450945684972","0","0","2","0","do not exclude"
"2","27","1","../static/images/invador1.png","4","20","8","2.5","left","74","-1","1172","0.712475211395474","0","0","2","0","do not exclude"
"2","28","1","../static/images/invador4.png","2","20","2","10","right","70","-1","1282","1.25218233118697","0","0","2","0","do not exclude"
"2","29","1","../static/images/invador1.png","4","20","8","2.5","left","74","-1","1052","0.123703807986569","0","0","2","0","do not exclude"
"2","30","1","../static/images/invador3.png","3","80","8","10","left","70","1","852","-0.857581864361606","1","0","2","0","do not exclude"
"2","31","1","../static/images/invador1.png","4","20","8","2.5","right","70","-1","746","-1.37766327070614","2","0","2","0","do not exclude"
"2","32","1","../static/images/invador2.png","1","80","2","40","right","70","-1","1494","2.29234514387604","0","0","2","0","do not exclude"
"2","33","1","../static/images/invador1.png","4","20","8","2.5","right","70","-1","1168","0.692849497948511","0","0","2","0","do not exclude"
"2","34","1","../static/images/invador1.png","4","20","8","2.5","right","74","1","952","-0.366939028187519","1","0","2","0","do not exclude"
"2","35","1","../static/images/invador1.png","4","20","8","2.5","right","70","-1","962","-0.31787474457011","0","0","2","0","do not exclude"
"2","36","1","../static/images/invador4.png","2","20","2","10","right","70","-1","1198","0.840042348800737","0","0","2","0","do not exclude"
"2","37","1","../static/images/invador1.png","4","20","8","2.5","left","74","-1","1006","-0.101991896653511","0","0","2","0","do not exclude"
"2","38","1","../static/images/invador1.png","4","20","8","2.5","left","70","1","972","-0.268810460952701","1","0","2","0","do not exclude"
"2","39","1","../static/images/invador3.png","3","80","8","10","right","74","1","1442","2.03721086906551","0","0","2","0","do not exclude"
"2","40","1","../static/images/invador1.png","4","20","8","2.5","right","70","-1","1112","0.418089509691022","0","0","2","0","do not exclude"
"2","41","1","../static/images/invador2.png","1","80","2","40","left","70","1","1444","2.04702372578899","0","0","2","0","do not exclude"
"2","42","1","../static/images/invador1.png","4","20","8","2.5","left","74","-1","944","-0.406190455081446","0","0","2","0","do not exclude"
"2","43","1","../static/images/invador1.png","4","20","8","2.5","left","74","-1","1112","0.418089509691022","0","0","2","0","do not exclude"
"2","44","1","../static/images/invador4.png","2","20","2","10","right","70","-1","662","-1.78980325309237","2","0","2","0","do not exclude"
"2","45","1","../static/images/invador3.png","3","80","8","10","left","70","1","1096","0.339586655903168","0","0","2","0","do not exclude"
"2","46","1","../static/images/invador1.png","4","20","8","2.5","left","74","-1","946","-0.396377598357964","0","0","2","0","do not exclude"
"2","47","1","../static/images/invador2.png","1","80","2","40","right","70","-1","642","-1.88793182032719","2","0","2","0","do not exclude"
"2","48","1","../static/images/invador1.png","4","20","8","2.5","left","74","-1","892","-0.661324729891971","0","0","2","0","do not exclude"
"2","49","1","../static/images/invador3.png","3","80","8","10","left","70","1","954","-0.357126171464037","1","0","2","0","do not exclude"
"2","50","1","../static/images/invador1.png","4","20","8","2.5","left","74","-1","896","-0.641699016445008","0","0","2","0","do not exclude"
"2","51","1","../static/images/invador4.png","2","20","2","10","left","70","1","812","-1.05383899883124","1","0","2","0","do not exclude"
"2","52","1","../static/images/invador1.png","4","20","8","2.5","right","70","-1","1128","0.496592363478876","0","0","2","0","do not exclude"
"2","53","1","../static/images/invador2.png","1","80","2","40","left","70","1","1108","0.398463796244058","0","0","2","0","do not exclude"
"2","54","1","../static/images/invador1.png","4","20","8","2.5","right","70","-1","994","-0.160869036994402","0","0","2","0","do not exclude"
"2","55","1","../static/images/invador1.png","4","20","8","2.5","right","70","-1","924","-0.504319022316263","0","0","2","0","do not exclude"
"2","56","1","../static/images/invador4.png","2","20","2","10","right","70","-1","1394","1.80170230770195","0","0","2","0","do not exclude"
"2","57","1","../static/images/invador1.png","4","20","8","2.5","right","70","-1","1198","0.840042348800737","0","0","2","0","do not exclude"
"2","58","1","../static/images/invador3.png","3","80","8","10","right","74","1","1288","1.28162090135742","0","0","2","0","do not exclude"
"2","59","1","../static/images/invador1.png","4","20","8","2.5","right","70","-1","988","-0.190307607164847","0","0","2","0","do not exclude"
"2","60","1","../static/images/invador2.png","1","80","2","40","right","74","1","1228","0.987235199652963","0","0","2","0","do not exclude"
"2","61","1","../static/images/invador1.png","4","20","8","2.5","right","70","-1","916","-0.54357044921019","0","0","2","0","do not exclude"
"2","62","1","../static/images/invador1.png","4","20","8","2.5","left","74","-1","1006","-0.101991896653511","0","0","2","0","do not exclude"
"2","63","1","../static/images/invador2.png","1","80","2","40","left","70","1","784","-1.19121899295999","1","0","2","0","do not exclude"
"2","64","1","../static/images/invador1.png","4","20","8","2.5","right","70","-1","912","-0.563196162657154","0","0","2","0","do not exclude"
"2","65","1","../static/images/invador1.png","4","20","8","2.5","left","74","-1","938","-0.435629025251891","0","0","2","0","do not exclude"
"2","66","1","../static/images/invador4.png","2","20","2","10","left","74","-1","1158","0.643785214331102","0","0","2","0","do not exclude"
"2","67","1","../static/images/invador1.png","4","20","8","2.5","left","74","-1","1124","0.476966650031912","0","0","2","0","do not exclude"
"2","68","1","../static/images/invador3.png","3","80","8","10","left","70","1","1006","-0.101991896653511","0","0","2","0","do not exclude"
"2","69","1","../static/images/invador1.png","4","20","8","2.5","right","70","-1","940","-0.425816168528409","0","0","2","0","do not exclude"
"2","70","1","../static/images/invador1.png","4","20","8","2.5","left","74","-1","904","-0.602447589551081","0","0","2","0","do not exclude"
"2","71","1","../static/images/invador4.png","2","20","2","10","left","74","-1","730","-1.45616612449399","2","0","2","0","do not exclude"
"2","72","1","../static/images/invador1.png","4","20","8","2.5","right","70","-1","1070","0.212019518497905","0","0","2","0","do not exclude"
"2","73","1","../static/images/invador1.png","4","20","8","2.5","left","74","-1","940","-0.425816168528409","0","0","2","0","do not exclude"
"2","74","1","../static/images/invador3.png","3","80","8","10","right","74","1","1046","0.0942652378161237","1","0","2","0","do not exclude"
"2","75","1","../static/images/invador1.png","4","20","8","2.5","right","70","-1","916","-0.54357044921019","2","0","2","0","do not exclude"
"2","76","1","../static/images/invador2.png","1","80","2","40","left","70","1","1038","0.0550138109221967","0","0","2","0","do not exclude"
"2","77","1","../static/images/invador1.png","4","20","8","2.5","right","70","-1","872","-0.759453297126789","2","0","2","0","do not exclude"
"2","78","1","../static/images/invador1.png","4","20","8","2.5","left","70","1","952","-0.366939028187519","1","0","2","0","do not exclude"
"2","79","1","../static/images/invador1.png","4","20","8","2.5","left","74","-1","928","-0.4846933088693","0","0","2","0","do not exclude"
"2","80","1","../static/images/invador1.png","4","20","8","2.5","right","70","-1","792","-1.15196756606606","0","0","2","0","do not exclude"
"2","81","1","../static/images/invador3.png","3","80","8","10","right","74","1","1030","0.0157623840282697","0","0","2","0","do not exclude"
"2","82","1","../static/images/invador4.png","2","20","2","10","right","70","-1","1112","0.418089509691022","0","0","2","0","do not exclude"
"2","83","1","../static/images/invador2.png","1","80","2","40","right","74","1","1112","0.418089509691022","0","0","2","0","do not exclude"
"2","84","1","../static/images/invador1.png","4","20","8","2.5","left","74","-1","912","-0.563196162657154","0","0","2","0","do not exclude"
"2","85","1","../static/images/invador1.png","4","20","8","2.5","right","74","1","810","-1.06365185555472","1","0","2","0","do not exclude"
"2","86","1","../static/images/invador4.png","2","20","2","10","left","74","-1","1066","0.192393805050941","0","0","2","0","do not exclude"
"2","87","1","../static/images/invador2.png","1","80","2","40","left","70","1","1110","0.40827665296754","0","0","2","0","do not exclude"
"2","88","1","../static/images/invador1.png","4","20","8","2.5","right","70","-1","998","-0.141243323547438","0","0","2","0","do not exclude"
"2","89","1","../static/images/invador3.png","3","80","8","10","left","70","1","1020","-0.0333018995891391","0","0","2","0","do not exclude"
"2","90","1","../static/images/invador1.png","4","20","8","2.5","right","74","1","934","-0.455254738698854","1","0","2","0","do not exclude"
"2","91","1","../static/images/invador1.png","4","20","8","2.5","left","74","-1","1100","0.359212369350131","2","0","2","0","do not exclude"
"2","92","1","../static/images/invador2.png","1","80","2","40","left","70","1","1142","0.565282360543248","0","0","2","0","do not exclude"
"2","93","1","../static/images/invador1.png","4","20","8","2.5","left","74","-1","932","-0.465067595422336","2","0","2","0","do not exclude"
"2","94","1","../static/images/invador1.png","4","20","8","2.5","right","70","-1","1156","0.63397235760762","0","0","2","0","do not exclude"
"2","95","1","../static/images/invador1.png","4","20","8","2.5","left","74","-1","1034","0.0353880974752332","2","0","2","0","do not exclude"
"2","96","1","../static/images/invador4.png","2","20","2","10","left","74","-1","754","-1.33841184381221","2","0","2","0","do not exclude"
"2","97","1","../static/images/invador3.png","3","80","8","10","right","70","-1","718","-1.51504326483488","2","0","2","0","do not exclude"
"2","98","1","../static/images/invador1.png","4","20","8","2.5","left","70","1","918","-0.533757592486709","1","0","2","0","do not exclude"
"2","99","1","../static/images/invador1.png","4","20","8","2.5","left","74","-1","882","-0.71038901350938","0","0","2","0","do not exclude"
"2","100","1","../static/images/invador2.png","1","80","2","40","right","74","1","978","-0.239371890782256","0","0","2","0","do not exclude"
"2","101","1","../static/images/invador1.png","4","20","8","2.5","right","70","-1","924","-0.504319022316263","0","0","2","0","do not exclude"
"2","102","1","../static/images/invador1.png","4","20","8","2.5","left","74","-1","978","-0.239371890782256","2","0","2","0","do not exclude"
"2","103","1","../static/images/invador3.png","3","80","8","10","left","70","1","894","-0.651511873168489","0","0","2","0","do not exclude"
"2","104","1","../static/images/invador4.png","2","20","2","10","right","70","-1","1040","0.0648266676456784","0","0","2","0","do not exclude"
"2","105","1","../static/images/invador1.png","4","20","8","2.5","left","74","-1","866","-0.788891867297234","0","0","2","0","do not exclude"
"2","106","1","../static/images/invador2.png","1","80","2","40","right","74","1","1126","0.486779506755394","0","0","2","0","do not exclude"
"2","107","1","../static/images/invador1.png","4","20","8","2.5","right","70","-1","956","-0.347313314740555","0","0","2","0","do not exclude"
"2","108","1","../static/images/invador3.png","3","80","8","10","left","70","1","930","-0.474880452145818","0","0","2","0","do not exclude"
"2","109","1","../static/images/invador1.png","4","20","8","2.5","left","74","-1","930","-0.474880452145818","0","0","2","0","do not exclude"
"2","110","1","../static/images/invador4.png","2","20","2","10","right","70","-1","858","-0.828143294191161","2","0","2","0","do not exclude"
"2","111","1","../static/images/invador1.png","4","20","8","2.5","right","70","-1","990","-0.180494750441365","0","0","2","0","do not exclude"
"2","112","1","../static/images/invador1.png","4","20","8","2.5","left","70","1","1136","0.535843790372802","1","0","2","0","do not exclude"
"2","113","1","../static/images/invador3.png","3","80","8","10","left","70","1","1000","-0.131430466823957","0","0","2","0","do not exclude"
"2","114","1","../static/images/invador1.png","4","20","8","2.5","left","70","1","834","-0.945897574872942","1","0","2","0","do not exclude"
"2","115","1","../static/images/invador4.png","2","20","2","10","left","74","-1","1112","0.418089509691022","0","0","2","0","do not exclude"
"2","116","1","../static/images/invador2.png","1","80","2","40","right","70","-1","786","-1.1814061362365","2","0","2","0","do not exclude"
"2","117","1","../static/images/invador1.png","4","20","8","2.5","right","70","-1","998","-0.141243323547438","0","0","2","0","do not exclude"
"2","118","1","../static/images/invador1.png","4","20","8","2.5","right","70","-1","854","-0.847769007638125","0","0","2","0","do not exclude"
"2","119","1","../static/images/invador1.png","4","20","8","2.5","right","70","-1","1190","0.80079092190681","0","0","2","0","do not exclude"
"2","120","1","../static/images/invador2.png","1","80","2","40","right","74","1","1090","0.310148085732722","1","0","2","0","do not exclude"
"2","121","1","../static/images/invador1.png","4","20","8","2.5","left","74","-1","1058","0.153142378157014","0","0","2","0","do not exclude"
"2","122","1","../static/images/invador1.png","4","20","8","2.5","right","70","-1","844","-0.896833291255533","0","0","2","0","do not exclude"
"2","123","1","../static/images/invador3.png","3","80","8","10","right","74","1","1010","-0.0823661832065479","1","0","2","0","do not exclude"
"2","124","2","../static/images/invador1.png","4","20","8","2.5","right","70","-1","1082","0.270896658838795","0","0","2","0","do not exclude"
"2","125","2","../static/images/invador1.png","4","20","8","2.5","right","74","1","1352","1.59563231650883","0","0","2","0","do not exclude"
"2","126","2","../static/images/invador1.png","4","20","8","2.5","left","74","-1","1248","1.08536376688778","0","0","2","0","do not exclude"
"2","127","2","../static/images/invador1.png","4","20","8","2.5","right","70","-1","960","-0.327687601293592","2","0","2","0","do not exclude"
"2","128","2","../static/images/invador1.png","4","20","8","2.5","left","74","-1","1286","1.27180804463393","0","0","2","0","do not exclude"
"2","129","2","../static/images/invador1.png","4","20","8","2.5","left","74","-1","1058","0.153142378157014","0","0","2","0","do not exclude"
"2","130","2","../static/images/invador1.png","4","20","8","2.5","left","74","-1","1104","0.378838082797095","0","0","2","0","do not exclude"
"2","131","2","../static/images/invador1.png","4","20","8","2.5","left","74","-1","1018","-0.0431147563126208","0","0","2","0","do not exclude"
"2","132","2","../static/images/invador1.png","4","20","8","2.5","left","70","1","1152","0.614346644160657","1","0","2","0","do not exclude"
"2","133","2","../static/images/invador1.png","4","20","8","2.5","left","74","-1","1076","0.24145808866835","0","0","2","0","do not exclude"
"2","134","2","../static/images/invador1.png","4","20","8","2.5","left","74","-1","1048","0.104078094539605","0","0","2","0","do not exclude"
"2","135","2","../static/images/invador1.png","4","20","8","2.5","left","74","-1","1254","1.11480233705823","0","0","2","0","do not exclude"
"2","136","2","../static/images/invador1.png","4","20","8","2.5","left","70","1","1074","0.231645231944868","1","0","2","0","do not exclude"
"2","137","2","../static/images/invador1.png","4","20","8","2.5","right","74","1","998","-0.141243323547438","1","0","2","0","do not exclude"
"2","138","2","../static/images/invador1.png","4","20","8","2.5","left","74","-1","1274","1.21293090429304","0","0","2","0","do not exclude"
"2","139","2","../static/images/invador1.png","4","20","8","2.5","left","74","-1","920","-0.523944735763227","2","0","2","0","do not exclude"
"2","140","2","../static/images/invador1.png","4","20","8","2.5","right","70","-1","960","-0.327687601293592","0","0","2","0","do not exclude"
"2","141","2","../static/images/invador1.png","4","20","8","2.5","right","70","-1","1094","0.329773799179686","0","0","2","0","do not exclude"
"2","142","2","../static/images/invador1.png","4","20","8","2.5","left","74","-1","980","-0.229559034058774","0","0","2","0","do not exclude"
"2","143","2","../static/images/invador1.png","4","20","8","2.5","left","74","-1","942","-0.416003311804927","2","0","2","0","do not exclude"
"2","144","2","../static/images/invador1.png","4","20","8","2.5","left","70","1","1510","2.37084799766389","0","0","2","0","do not exclude"
"2","145","2","../static/images/invador1.png","4","20","8","2.5","left","74","-1","1188","0.790978065183328","0","0","2","0","do not exclude"
"2","146","2","../static/images/invador1.png","4","20","8","2.5","right","70","-1","1016","-0.0529276130361026","0","0","2","0","do not exclude"
"2","147","2","../static/images/invador1.png","4","20","8","2.5","left","74","-1","936","-0.445441881975373","2","0","2","0","do not exclude"
"2","148","2","../static/images/invador1.png","4","20","8","2.5","right","70","-1","874","-0.749640440403307","2","0","2","0","do not exclude"
"2","149","2","../static/images/invador1.png","4","20","8","2.5","right","70","-1","994","-0.160869036994402","2","0","2","0","do not exclude"
"2","150","2","../static/images/invador1.png","4","20","8","2.5","right","74","1","1136","0.535843790372802","1","0","2","0","do not exclude"
"2","151","2","../static/images/invador1.png","4","20","8","2.5","right","74","1","1366","1.6643223135732","0","0","2","0","do not exclude"
"2","152","2","../static/images/invador1.png","4","20","8","2.5","left","70","1","1224","0.967609486206","0","0","2","0","do not exclude"
"2","153","2","../static/images/invador1.png","4","20","8","2.5","left","70","1","970","-0.278623317676183","0","0","2","0","do not exclude"
"2","154","2","../static/images/invador1.png","4","20","8","2.5","left","74","-1","710","-1.55429469172881","2","0","2","0","do not exclude"
"2","155","2","../static/images/invador1.png","4","20","8","2.5","left","74","-1","924","-0.504319022316263","2","0","2","0","do not exclude"
"2","156","2","../static/images/invador1.png","4","20","8","2.5","left","70","1","1050","0.113890951263087","1","0","2","0","do not exclude"
"2","157","2","../static/images/invador1.png","4","20","8","2.5","left","70","1","1120","0.457340936584949","0","0","2","0","do not exclude"
"2","158","0","../static/images/invador1.png","4","20","8","2.5","left","70","1","1272","1.20311804756956","0","0","2","0","do not exclude"
"2","159","0","../static/images/invador2.png","1","80","2","40","left","70","1","1356","1.6152580299558","0","0","2","0","do not exclude"
"2","160","0","../static/images/invador4.png","2","20","2","10","left","74","-1","1300","1.34049804169831","0","0","2","0","do not exclude"
"2","161","0","../static/images/invador2.png","1","80","2","40","left","74","-1","992","-0.170681893717884","2","0","2","0","do not exclude"
"2","162","0","../static/images/invador1.png","4","20","8","2.5","right","70","-1","1196","0.830229492077255","0","0","2","0","do not exclude"
"2","163","0","../static/images/invador2.png","1","80","2","40","right","74","1","1314","1.40918803876268","0","0","2","0","do not exclude"
"2","164","0","../static/images/invador2.png","1","80","2","40","right","74","1","1244","1.06573805344082","0","0","2","0","do not exclude"
"2","165","0","../static/images/invador2.png","1","80","2","40","right","74","1","1452","2.08627515268292","0","0","2","0","do not exclude"
"2","166","0","../static/images/invador3.png","3","80","8","10","right","74","1","1020","-0.0333018995891391","0","0","2","0","do not exclude"
"2","167","0","../static/images/invador4.png","2","20","2","10","left","74","-1","882","-0.71038901350938","2","0","2","0","do not exclude"
"2","168","0","../static/images/invador4.png","2","20","2","10","right","70","-1","634","-1.92718324722112","2","0","2","0","do not exclude"
"2","169","0","../static/images/invador1.png","4","20","8","2.5","left","74","-1","1124","0.476966650031912","0","0","2","0","do not exclude"
"2","170","0","../static/images/invador2.png","1","80","2","40","right","74","1","1110","0.40827665296754","0","0","2","0","do not exclude"
"2","171","0","../static/images/invador3.png","3","80","8","10","left","70","1","1000","-0.131430466823957","0","0","2","0","do not exclude"
"2","172","0","../static/images/invador2.png","1","80","2","40","right","74","1","1234","1.01667376982341","0","0","2","0","do not exclude"
"2","173","0","../static/images/invador2.png","1","80","2","40","right","74","1","970","-0.278623317676183","0","0","2","0","do not exclude"
"2","174","0","../static/images/invador2.png","1","80","2","40","right","74","1","896","-0.641699016445008","1","0","2","0","do not exclude"
"2","175","0","../static/images/invador2.png","1","80","2","40","left","70","1","916","-0.54357044921019","0","0","2","0","do not exclude"
"2","176","0","../static/images/invador3.png","3","80","8","10","right","74","NaN","NaN","NaN","0","1","2","0","do not exclude"
"2","177","0","../static/images/invador4.png","2","20","2","10","right","70","-1","1096","0.339586655903168","0","0","2","0","do not exclude"
"2","178","0","../static/images/invador1.png","4","20","8","2.5","right","70","-1","1104","0.378838082797095","0","0","2","0","do not exclude"
"2","179","0","../static/images/invador2.png","1","80","2","40","left","70","1","1044","0.0844523810926419","1","0","2","0","do not exclude"
"2","180","0","../static/images/invador2.png","1","80","2","40","left","70","1","972","-0.268810460952701","0","0","2","0","do not exclude"
"2","181","0","../static/images/invador2.png","1","80","2","40","right","74","1","1010","-0.0823661832065479","0","0","2","0","do not exclude"
"2","182","0","../static/images/invador2.png","1","80","2","40","left","70","1","1076","0.24145808866835","0","0","2","0","do not exclude"
"2","183","0","../static/images/invador2.png","1","80","2","40","right","74","1","986","-0.200120463888329","0","0","2","0","do not exclude"
"2","184","0","../static/images/invador2.png","1","80","2","40","left","70","1","980","-0.229559034058774","0","0","2","0","do not exclude"
"2","185","0","../static/images/invador2.png","1","80","2","40","left","70","1","1012","-0.0725533264830661","0","0","2","0","do not exclude"
"2","186","0","../static/images/invador3.png","3","80","8","10","left","70","1","970","-0.278623317676183","0","0","2","0","do not exclude"
"2","187","0","../static/images/invador1.png","4","20","8","2.5","right","74","1","830","-0.965523288319906","1","0","2","0","do not exclude"
"2","188","0","../static/images/invador4.png","2","20","2","10","right","70","-1","1072","0.221832375221386","0","0","2","0","do not exclude"
"2","189","0","../static/images/invador1.png","4","20","8","2.5","right","70","-1","1044","0.0844523810926419","0","0","2","0","do not exclude"
"2","190","0","../static/images/invador4.png","2","20","2","10","left","74","-1","946","-0.396377598357964","0","0","2","0","do not exclude"
"2","191","0","../static/images/invador2.png","1","80","2","40","right","74","1","1248","1.08536376688778","0","0","2","0","do not exclude"
"2","192","0","../static/images/invador2.png","1","80","2","40","left","70","1","834","-0.945897574872942","1","0","2","0","do not exclude"
"2","193","0","../static/images/invador2.png","1","80","2","40","right","74","1","980","-0.229559034058774","0","0","2","0","do not exclude"
"2","194","0","../static/images/invador2.png","1","80","2","40","left","70","1","830","-0.965523288319906","0","0","2","0","do not exclude"
"2","195","0","../static/images/invador3.png","3","80","8","10","right","70","-1","678","-1.71130039930452","2","0","2","0","do not exclude"
"2","196","0","../static/images/invador2.png","1","80","2","40","left","70","1","1094","0.329773799179686","1","0","2","0","do not exclude"
"2","197","0","../static/images/invador2.png","1","80","2","40","left","74","-1","612","-2.03512467117942","2","0","2","0","do not exclude"
"2","198","0","../static/images/invador4.png","2","20","2","10","right","70","-1","884","-0.700576156785898","0","0","2","0","do not exclude"
"2","199","0","../static/images/invador1.png","4","20","8","2.5","left","70","1","670","-1.75055182619845","1","0","2","0","do not exclude"
"2","200","0","../static/images/invador2.png","1","80","2","40","right","74","1","1028","0.00594952730478791","0","0","2","0","do not exclude"
"2","201","0","../static/images/invador2.png","1","80","2","40","right","74","1","888","-0.680950443338935","0","0","2","0","do not exclude"
"2","202","0","../static/images/invador3.png","3","80","8","10","left","70","1","902","-0.612260446274562","0","0","2","0","do not exclude"
"2","203","0","../static/images/invador2.png","1","80","2","40","left","70","1","930","-0.474880452145818","0","0","2","0","do not exclude"
"2","204","0","../static/images/invador2.png","1","80","2","40","left","70","1","930","-0.474880452145818","0","0","2","0","do not exclude"
"2","205","0","../static/images/invador1.png","4","20","8","2.5","left","70","1","746","-1.37766327070614","1","0","2","0","do not exclude"
"2","206","0","../static/images/invador2.png","1","80","2","40","right","74","1","856","-0.837956150914643","0","0","2","0","do not exclude"
"2","207","0","../static/images/invador2.png","1","80","2","40","left","70","1","928","-0.4846933088693","0","0","2","0","do not exclude"
"2","208","0","../static/images/invador3.png","3","80","8","10","left","74","-1","798","-1.12252899589561","2","0","2","0","do not exclude"
"2","209","0","../static/images/invador4.png","2","20","2","10","right","70","-1","1004","-0.111804753376993","0","0","2","0","do not exclude"
"2","210","0","../static/images/invador2.png","1","80","2","40","right","74","1","930","-0.474880452145818","1","0","2","0","do not exclude"
"2","211","0","../static/images/invador1.png","4","20","8","2.5","right","70","-1","998","-0.141243323547438","2","0","2","0","do not exclude"
"2","212","0","../static/images/invador2.png","1","80","2","40","left","70","1","1028","0.00594952730478791","1","0","2","0","do not exclude"
"2","213","0","../static/images/invador2.png","1","80","2","40","right","74","1","1060","0.162955234880496","0","0","2","0","do not exclude"
"2","214","0","../static/images/invador3.png","3","80","8","10","left","70","1","974","-0.258997604229219","0","0","2","0","do not exclude"
"2","215","0","../static/images/invador2.png","1","80","2","40","right","70","-1","674","-1.73092611275148","2","0","2","0","do not exclude"
"2","216","0","../static/images/invador4.png","2","20","2","10","right","70","-1","948","-0.386564741634482","0","0","2","0","do not exclude"
"2","217","0","../static/images/invador3.png","3","80","8","10","left","70","1","1062","0.172768091603978","1","0","2","0","do not exclude"
"2","218","0","../static/images/invador4.png","2","20","2","10","right","70","-1","944","-0.406190455081446","2","0","2","0","do not exclude"
"2","219","0","../static/images/invador2.png","1","80","2","40","left","70","1","1044","0.0844523810926419","0","0","2","0","do not exclude"
"2","220","0","../static/images/invador1.png","4","20","8","2.5","right","70","-1","1004","-0.111804753376993","0","0","2","0","do not exclude"
"2","221","0","../static/images/invador2.png","1","80","2","40","right","70","-1","752","-1.34822470053569","2","0","2","0","do not exclude"
"2","222","0","../static/images/invador2.png","1","80","2","40","left","74","-1","968","-0.288436174399665","2","0","2","0","do not exclude"
"2","223","0","../static/images/invador2.png","1","80","2","40","left","70","1","1286","1.27180804463393","0","0","2","0","do not exclude"
"2","224","0","../static/images/invador1.png","4","20","8","2.5","right","74","1","1090","0.310148085732722","1","0","2","0","do not exclude"
"2","225","0","../static/images/invador2.png","1","80","2","40","left","70","1","1072","0.221832375221386","0","0","2","0","do not exclude"
"2","226","0","../static/images/invador4.png","2","20","2","10","left","74","-1","1074","0.231645231944868","0","0","2","0","do not exclude"
"2","227","0","../static/images/invador2.png","1","80","2","40","left","70","1","990","-0.180494750441365","0","0","2","0","do not exclude"
"2","228","0","../static/images/invador2.png","1","80","2","40","right","74","1","960","-0.327687601293592","0","0","2","0","do not exclude"
"2","229","0","../static/images/invador2.png","1","80","2","40","right","74","1","1008","-0.0921790399300296","1","0","2","0","do not exclude"
"2","230","0","../static/images/invador3.png","3","80","8","10","left","70","1","924","-0.504319022316263","1","0","2","0","do not exclude"
"2","231","0","../static/images/invador2.png","1","80","2","40","right","74","1","1002","-0.121617610100475","1","0","2","0","do not exclude"
"2","232","0","../static/images/invador2.png","1","80","2","40","right","74","1","942","-0.416003311804927","0","0","2","0","do not exclude"
"2","233","0","../static/images/invador3.png","3","80","8","10","left","70","1","854","-0.847769007638125","0","0","2","0","do not exclude"
"2","234","0","../static/images/invador4.png","2","20","2","10","right","70","-1","926","-0.494506165592781","0","0","2","0","do not exclude"
"2","235","0","../static/images/invador2.png","1","80","2","40","right","74","1","1028","0.00594952730478791","0","0","2","0","do not exclude"
"2","236","0","../static/images/invador1.png","4","20","8","2.5","right","70","-1","918","-0.533757592486709","0","0","2","0","do not exclude"
"2","237","0","../static/images/invador2.png","1","80","2","40","right","74","1","964","-0.308061887846628","0","0","2","0","do not exclude"
"2","238","0","../static/images/invador4.png","2","20","2","10","right","70","-1","856","-0.837956150914643","0","0","2","0","do not exclude"
"2","239","0","../static/images/invador1.png","4","20","8","2.5","right","70","-1","1068","0.202206661774423","0","0","2","0","do not exclude"
"2","240","0","../static/images/invador2.png","1","80","2","40","left","70","1","940","-0.425816168528409","0","0","2","0","do not exclude"
"2","241","0","../static/images/invador2.png","1","80","2","40","left","70","1","1052","0.123703807986569","0","0","2","0","do not exclude"
"2","242","0","../static/images/invador3.png","3","80","8","10","right","74","1","892","-0.661324729891971","0","0","2","0","do not exclude"
"2","243","0","../static/images/invador2.png","1","80","2","40","left","74","-1","896","-0.641699016445008","2","0","2","0","do not exclude"
"2","244","0","../static/images/invador2.png","1","80","2","40","left","70","1","916","-0.54357044921019","0","0","2","0","do not exclude"
"2","245","0","../static/images/invador1.png","4","20","8","2.5","right","70","-1","726","-1.47579183794096","2","0","2","0","do not exclude"
"2","246","0","../static/images/invador2.png","1","80","2","40","left","70","1","888","-0.680950443338935","0","0","2","0","do not exclude"
"2","247","0","../static/images/invador3.png","3","80","8","10","left","70","1","912","-0.563196162657154","0","0","2","0","do not exclude"
"2","248","0","../static/images/invador2.png","1","80","2","40","right","74","1","902","-0.612260446274562","1","0","2","0","do not exclude"
"2","249","0","../static/images/invador2.png","1","80","2","40","right","74","1","146","-4.32152028775066","0","0","2","0","do not exclude"
"2","250","0","../static/images/invador2.png","1","80","2","40","right","74","1","988","-0.190307607164847","0","0","2","0","do not exclude"
"2","251","0","../static/images/invador4.png","2","20","2","10","left","70","1","970","-0.278623317676183","1","0","2","0","do not exclude"
"2","252","0","../static/images/invador1.png","4","20","8","2.5","right","70","-1","1064","0.182580948327459","0","0","2","0","do not exclude"
"2","253","0","../static/images/invador4.png","2","20","2","10","left","74","-1","898","-0.631886159721526","0","0","2","0","do not exclude"
"2","254","0","../static/images/invador3.png","3","80","8","10","right","74","1","1106","0.388650939520576","0","0","2","0","do not exclude"
"3","0","0","../static/images/invador3.png","4","20","8","2.5","right","74","1","1327","1.65550767443655","0","0","1","0","do not exclude"
"3","1","0","../static/images/invador4.png","1","80","2","40","right","70","-1","1007","0.260157075483072","2","0","1","0","do not exclude"
"3","2","0","../static/images/invador4.png","1","80","2","40","right","70","-1","733","-0.934611874870844","2","0","1","0","do not exclude"
"3","3","0","../static/images/invador4.png","1","80","2","40","left","70","1","1016","0.299401311078638","0","0","1","0","do not exclude"
"3","4","0","../static/images/invador2.png","2","20","2","10","left","70","1","1453","2.20492697277448","0","0","1","0","do not exclude"
"3","5","0","../static/images/invador4.png","1","80","2","40","right","74","1","1535","2.56248556375631","0","0","1","0","do not exclude"
"3","6","0","../static/images/invador1.png","3","80","8","10","left","70","1","1200","1.10172790547689","1","0","1","0","do not exclude"
"3","7","0","../static/images/invador2.png","2","20","2","10","left","74","-1","894","-0.232576104772375","2","0","1","0","do not exclude"
"3","8","0","../static/images/invador3.png","4","20","8","2.5","left","74","-1","1997","4.5770229909954","0","0","1","0","do not exclude"
"3","9","0","../static/images/invador4.png","1","80","2","40","left","70","1","1395","1.95201967671416","0","0","1","0","do not exclude"
"3","10","0","../static/images/invador4.png","1","80","2","40","right","74","1","910","-0.162808574824701","1","0","1","0","do not exclude"
"3","11","0","../static/images/invador4.png","1","80","2","40","left","70","1","1297","1.52469355578466","0","0","1","0","do not exclude"
"3","12","0","../static/images/invador1.png","3","80","8","10","left","74","-1","1310","1.58137967386715","0","0","1","0","do not exclude"
"3","13","0","../static/images/invador4.png","1","80","2","40","left","70","1","992","0.194750016157128","0","0","1","0","do not exclude"
"3","14","0","../static/images/invador3.png","4","20","8","2.5","left","74","-1","1205","1.12353025858554","0","0","1","0","do not exclude"
"3","15","0","../static/images/invador2.png","2","20","2","10","right","70","-1","1520","2.49707850443037","0","0","1","0","do not exclude"
"3","16","0","../static/images/invador1.png","3","80","8","10","right","74","1","1315","1.60318202697579","1","0","1","0","do not exclude"
"3","17","0","../static/images/invador4.png","1","80","2","40","left","70","1","1265","1.38515849588931","1","0","1","0","do not exclude"
"3","18","0","../static/images/invador4.png","1","80","2","40","right","74","1","1079","0.574110960247605","0","0","1","0","do not exclude"
"3","19","0","../static/images/invador4.png","1","80","2","40","right","74","1","751","-0.856123403679711","0","0","1","0","do not exclude"
"3","20","0","../static/images/invador4.png","1","80","2","40","right","74","1","1345","1.73399614562768","0","0","1","0","do not exclude"
"3","21","0","../static/images/invador3.png","4","20","8","2.5","left","74","-1","1259","1.35899567215894","0","0","1","0","do not exclude"
"3","22","0","../static/images/invador4.png","1","80","2","40","right","74","1","1248","1.31103049531991","0","0","1","0","do not exclude"
"3","23","0","../static/images/invador4.png","1","80","2","40","right","74","NaN","NaN","NaN","0","1","1","0","do not exclude"
"3","24","0","../static/images/invador1.png","3","80","8","10","right","74","1","1458","2.22672932588313","0","0","1","0","do not exclude"
"3","25","0","../static/images/invador2.png","2","20","2","10","left","70","NaN","NaN","NaN","0","1","1","0","do not exclude"
"3","26","0","../static/images/invador4.png","1","80","2","40","left","70","1","1156","0.909867198120785","0","0","1","0","do not exclude"
"3","27","0","../static/images/invador4.png","1","80","2","40","right","74","1","730","-0.947693286736033","0","0","1","0","do not exclude"
"3","28","0","../static/images/invador2.png","2","20","2","10","left","70","1","1009","0.268878016726531","0","0","1","0","do not exclude"
"3","29","0","../static/images/invador3.png","4","20","8","2.5","right","70","-1","1366","1.82556602868401","0","0","1","0","do not exclude"
"3","30","0","../static/images/invador4.png","1","80","2","40","right","74","1","1442","2.15696179593546","0","0","1","0","do not exclude"
"3","31","0","../static/images/invador4.png","1","80","2","40","right","74","1","1040","0.404052606000149","0","0","1","0","do not exclude"
"3","32","0","../static/images/invador1.png","3","80","8","10","right","74","1","1129","0.792134491334086","1","0","1","0","do not exclude"
"3","33","0","../static/images/invador4.png","1","80","2","40","right","74","1","946","-0.00583163244243488","1","0","1","0","do not exclude"
"3","34","0","../static/images/invador4.png","1","80","2","40","right","74","1","680","-1.16571681782251","0","0","1","0","do not exclude"
"3","35","0","../static/images/invador1.png","3","80","8","10","left","74","-1","1198","1.09300696423343","0","0","1","0","do not exclude"
"3","36","0","../static/images/invador3.png","4","20","8","2.5","left","74","-1","860","-0.380832105911182","0","0","1","0","do not exclude"
"3","37","0","../static/images/invador4.png","1","80","2","40","left","70","1","814","-0.581413754510745","1","0","1","0","do not exclude"
"3","38","0","../static/images/invador4.png","1","80","2","40","left","70","1","809","-0.603216107619393","0","0","1","0","do not exclude"
"3","39","0","../static/images/invador4.png","1","80","2","40","right","74","1","841","-0.463681047724045","0","0","1","0","do not exclude"
"3","40","0","../static/images/invador4.png","1","80","2","40","right","70","-1","976","0.124982486209454","2","0","1","0","do not exclude"
"3","41","0","../static/images/invador2.png","2","20","2","10","right","70","-1","1360","1.79940320495363","0","0","1","0","do not exclude"
"3","42","0","../static/images/invador4.png","1","80","2","40","right","74","1","1013","0.28631989921345","0","0","1","0","do not exclude"
"3","43","0","../static/images/invador4.png","1","80","2","40","right","74","1","1444","2.16568273717892","0","0","1","0","do not exclude"
"3","44","0","../static/images/invador3.png","4","20","8","2.5","right","70","-1","858","-0.389553047154641","0","0","1","0","do not exclude"
"3","45","0","../static/images/invador2.png","2","20","2","10","left","74","-1","1078","0.569750489625875","0","0","1","0","do not exclude"
"3","46","0","../static/images/invador4.png","1","80","2","40","left","70","1","808","-0.607576578241122","1","0","1","0","do not exclude"
"3","47","0","../static/images/invador4.png","1","80","2","40","left","70","1","821","-0.550890460158637","1","0","1","0","do not exclude"
"3","48","0","../static/images/invador1.png","3","80","8","10","right","70","-1","831","-0.507285753941341","0","0","1","0","do not exclude"
"3","49","0","../static/images/invador4.png","1","80","2","40","right","70","-1","949","0.00724977942275398","2","0","1","0","do not exclude"
"3","50","0","../static/images/invador2.png","2","20","2","10","left","74","-1","961","0.0595754268835094","0","0","1","0","do not exclude"
"3","51","0","../static/images/invador4.png","1","80","2","40","right","74","1","806","-0.616297519484582","0","0","1","0","do not exclude"
"3","52","0","../static/images/invador3.png","4","20","8","2.5","right","70","-1","883","-0.280541281611401","0","0","1","0","do not exclude"
"3","53","0","../static/images/invador1.png","3","80","8","10","left","74","-1","676","-1.18315870030943","0","0","1","0","do not exclude"
"3","54","0","../static/images/invador4.png","1","80","2","40","left","70","1","791","-0.681704578810526","1","0","1","0","do not exclude"
"3","55","0","../static/images/invador4.png","1","80","2","40","right","74","1","1101","0.670041313925656","0","0","1","0","do not exclude"
"3","56","0","../static/images/invador3.png","4","20","8","2.5","left","74","-1","835","-0.489843871454423","0","0","1","0","do not exclude"
"3","57","0","../static/images/invador4.png","1","80","2","40","left","70","1","965","0.0770173093704279","0","0","1","0","do not exclude"
"3","58","0","../static/images/invador2.png","2","20","2","10","left","70","1","977","0.129342956831183","1","0","1","0","do not exclude"
"3","59","0","../static/images/invador4.png","1","80","2","40","right","74","1","725","-0.969495639844681","0","0","1","0","do not exclude"
"3","60","0","../static/images/invador4.png","1","80","2","40","right","74","1","876","-0.311064575963508","0","0","1","0","do not exclude"
"3","61","0","../static/images/invador1.png","3","80","8","10","left","74","-1","1044","0.421494488487068","2","0","1","0","do not exclude"
"3","62","0","../static/images/invador4.png","1","80","2","40","right","74","1","960","0.0552149562617798","0","0","1","0","do not exclude"
"3","63","0","../static/images/invador1.png","3","80","8","10","right","70","-1","886","-0.267459869746212","0","0","1","0","do not exclude"
"3","64","0","../static/images/invador2.png","2","20","2","10","right","70","-1","1106","0.691843667034304","0","0","1","0","do not exclude"
"3","65","0","../static/images/invador4.png","1","80","2","40","right","74","1","905","-0.184610927933349","0","0","1","0","do not exclude"
"3","66","0","../static/images/invador3.png","4","20","8","2.5","left","74","-1","1218","1.18021637666802","0","0","1","0","do not exclude"
"3","67","0","../static/images/invador4.png","1","80","2","40","right","74","1","977","0.129342956831183","1","0","1","0","do not exclude"
"3","68","0","../static/images/invador4.png","1","80","2","40","right","74","1","848","-0.433157753371938","0","0","1","0","do not exclude"
"3","69","0","../static/images/invador4.png","1","80","2","40","left","70","1","902","-0.197692339798538","0","0","1","0","do not exclude"
"3","70","0","../static/images/invador3.png","4","20","8","2.5","right","70","-1","1015","0.295040840456909","0","0","1","0","do not exclude"
"3","71","0","../static/images/invador4.png","1","80","2","40","right","74","1","873","-0.324145987828697","0","0","1","0","do not exclude"
"3","72","0","../static/images/invador2.png","2","20","2","10","right","70","-1","1047","0.434575900352257","0","0","1","0","do not exclude"
"3","73","0","../static/images/invador4.png","1","80","2","40","right","74","1","988","0.177308133670209","0","0","1","0","do not exclude"
"3","74","0","../static/images/invador1.png","3","80","8","10","right","70","-1","785","-0.707867402540904","0","0","1","0","do not exclude"
"3","75","0","../static/images/invador4.png","1","80","2","40","right","74","1","703","-1.06542599352273","1","0","1","0","do not exclude"
"3","76","0","../static/images/invador4.png","1","80","2","40","right","74","1","840","-0.468041518345775","0","0","1","0","do not exclude"
"3","77","0","../static/images/invador3.png","4","20","8","2.5","right","74","1","1147","0.870622962525219","1","0","1","0","do not exclude"
"3","78","0","../static/images/invador1.png","3","80","8","10","left","74","-1","847","-0.437518223993667","0","0","1","0","do not exclude"
"3","79","0","../static/images/invador4.png","1","80","2","40","left","70","1","806","-0.616297519484582","0","0","1","0","do not exclude"
"3","80","0","../static/images/invador4.png","1","80","2","40","left","70","1","836","-0.485483400832693","1","0","1","0","do not exclude"
"3","81","0","../static/images/invador2.png","2","20","2","10","left","74","-1","1123","0.765971667603708","0","0","1","0","do not exclude"
"3","82","0","../static/images/invador4.png","1","80","2","40","right","74","1","1090","0.62207613708663","0","0","1","0","do not exclude"
"3","83","0","../static/images/invador4.png","1","80","2","40","left","74","-1","1185","1.03632084615094","2","0","1","0","do not exclude"
"3","84","0","../static/images/invador4.png","1","80","2","40","right","70","-1","920","-0.119203868607405","1","0","1","0","do not exclude"
"3","85","0","../static/images/invador4.png","1","80","2","40","left","74","-1","901","-0.202052810420268","2","0","1","0","do not exclude"
"3","86","0","../static/images/invador1.png","3","80","8","10","left","70","1","0","-4.13083684059866","0","0","1","0","do not exclude"
"3","87","0","../static/images/invador2.png","2","20","2","10","right","74","NaN","NaN","NaN","0","1","1","0","do not exclude"
"3","88","0","../static/images/invador4.png","1","80","2","40","left","70","1","903","-0.193331869176809","0","0","1","0","do not exclude"
"3","89","0","../static/images/invador3.png","4","20","8","2.5","left","74","-1","1083","0.591552842734523","0","0","1","0","do not exclude"
"3","90","0","../static/images/invador4.png","1","80","2","40","left","70","1","1079","0.574110960247605","0","0","1","0","do not exclude"
"3","91","0","../static/images/invador3.png","4","20","8","2.5","left","74","-1","1190","1.05812319925959","2","0","1","0","do not exclude"
"3","92","0","../static/images/invador4.png","1","80","2","40","left","70","1","958","0.0464940150183206","0","0","1","0","do not exclude"
"3","93","0","../static/images/invador4.png","1","80","2","40","left","70","1","1042","0.412773547243609","0","0","1","0","do not exclude"
"3","94","0","../static/images/invador4.png","1","80","2","40","left","70","1","910","-0.162808574824701","0","0","1","0","do not exclude"
"3","95","0","../static/images/invador4.png","1","80","2","40","right","74","1","675","-1.18751917093116","0","0","1","0","do not exclude"
"3","96","0","../static/images/invador2.png","2","20","2","10","right","70","-1","1225","1.21073967102013","0","0","1","0","do not exclude"
"3","97","0","../static/images/invador1.png","3","80","8","10","left","70","1","1061","0.495622489056471","1","0","1","0","do not exclude"
"3","98","0","../static/images/invador4.png","1","80","2","40","left","74","-1","882","-0.284901752233131","2","0","1","0","do not exclude"
"3","99","0","../static/images/invador2.png","2","20","2","10","right","74","1","858","-0.389553047154641","0","0","1","0","do not exclude"
"3","100","0","../static/images/invador4.png","1","80","2","40","right","74","1","889","-0.254378457881023","0","0","1","0","do not exclude"
"3","101","0","../static/images/invador4.png","1","80","2","40","left","70","1","1369","1.83864744054919","0","0","1","0","do not exclude"
"3","102","0","../static/images/invador3.png","4","20","8","2.5","left","74","-1","940","-0.0319944561728126","0","0","1","0","do not exclude"
"3","103","0","../static/images/invador1.png","3","80","8","10","left","74","-1","860","-0.380832105911182","0","0","1","0","do not exclude"
"3","104","0","../static/images/invador4.png","1","80","2","40","left","70","1","922","-0.110482927363946","0","0","1","0","do not exclude"
"3","105","0","../static/images/invador2.png","2","20","2","10","left","74","-1","913","-0.149727162959512","0","0","1","0","do not exclude"
"3","106","0","../static/images/invador4.png","1","80","2","40","left","70","1","923","-0.106122456742216","0","0","1","0","do not exclude"
"3","107","0","../static/images/invador3.png","4","20","8","2.5","left","74","-1","779","-0.734030226271281","0","0","1","0","do not exclude"
"3","108","0","../static/images/invador1.png","3","80","8","10","left","74","-1","617","-1.44042646699148","0","0","1","0","do not exclude"
"3","109","0","../static/images/invador4.png","1","80","2","40","left","70","1","862","-0.372111164667723","0","0","1","0","do not exclude"
"3","110","0","../static/images/invador4.png","1","80","2","40","left","70","1","1280","1.45056555521526","1","0","1","0","do not exclude"
"3","111","0","../static/images/invador4.png","1","80","2","40","right","74","1","1017","0.303761781700368","0","0","1","0","do not exclude"
"3","112","0","../static/images/invador4.png","1","80","2","40","left","70","1","1117","0.73980884387333","0","0","1","0","do not exclude"
"3","113","0","../static/images/invador4.png","1","80","2","40","right","74","1","945","-0.0101921030641645","0","0","1","0","do not exclude"
"3","114","0","../static/images/invador3.png","4","20","8","2.5","left","74","-1","947","-0.00147116182070526","0","0","1","0","do not exclude"
"3","115","0","../static/images/invador4.png","1","80","2","40","right","74","1","1050","0.447657312217446","0","0","1","0","do not exclude"
"3","116","0","../static/images/invador1.png","3","80","8","10","left","74","-1","850","-0.424436812128478","0","0","1","0","do not exclude"
"3","117","0","../static/images/invador4.png","1","80","2","40","right","74","1","875","-0.315425046585238","0","0","1","0","do not exclude"
"3","118","0","../static/images/invador2.png","2","20","2","10","left","74","-1","1177","1.00143708117711","0","0","1","0","do not exclude"
"3","119","0","../static/images/invador4.png","1","80","2","40","left","70","1","968","0.0900987212356168","0","0","1","0","do not exclude"
"3","120","0","../static/images/invador4.png","1","80","2","40","right","74","1","995","0.207831428022316","0","0","1","0","do not exclude"
"3","121","0","../static/images/invador4.png","1","80","2","40","right","74","1","997","0.216552369265776","0","0","1","0","do not exclude"
"3","122","0","../static/images/invador4.png","1","80","2","40","left","70","1","806","-0.616297519484582","0","0","1","0","do not exclude"
"3","123","0","../static/images/invador2.png","2","20","2","10","right","74","1","858","-0.389553047154641","1","0","1","0","do not exclude"
"3","124","0","../static/images/invador1.png","3","80","8","10","left","74","-1","841","-0.463681047724045","0","0","1","0","do not exclude"
"3","125","0","../static/images/invador3.png","4","20","8","2.5","right","70","-1","717","-1.00437940481852","2","0","1","0","do not exclude"
"3","126","0","../static/images/invador2.png","2","20","2","10","right","74","1","914","-0.145366692337783","0","0","1","0","do not exclude"
"3","127","0","../static/images/invador1.png","3","80","8","10","left","74","-1","1050","0.447657312217446","0","0","1","0","do not exclude"
"3","128","0","../static/images/invador4.png","1","80","2","40","right","74","1","1032","0.369168841026312","0","0","1","0","do not exclude"
"3","129","0","../static/images/invador4.png","1","80","2","40","right","74","1","26","-4.01746460443368","0","0","1","0","do not exclude"
"3","130","0","../static/images/invador3.png","4","20","8","2.5","right","70","-1","1157","0.914227668742515","0","0","1","0","do not exclude"
"3","131","0","../static/images/invador4.png","1","80","2","40","left","70","1","879","-0.297983164098319","0","0","1","0","do not exclude"
"3","132","0","../static/images/invador4.png","1","80","2","40","right","70","-1","914","-0.145366692337783","2","0","1","0","do not exclude"
"3","133","0","../static/images/invador4.png","1","80","2","40","left","70","1","906","-0.18025045731162","0","0","1","0","do not exclude"
"3","134","0","../static/images/invador4.png","1","80","2","40","left","70","1","904","-0.188971398555079","0","0","1","0","do not exclude"
"3","135","0","../static/images/invador1.png","3","80","8","10","left","74","-1","816","-0.572692813267285","2","0","1","0","do not exclude"
"3","136","0","../static/images/invador2.png","2","20","2","10","left","70","1","1139","0.835739197551382","1","0","1","0","do not exclude"
"3","137","0","../static/images/invador4.png","1","80","2","40","left","70","1","922","-0.110482927363946","0","0","1","0","do not exclude"
"3","138","0","../static/images/invador3.png","4","20","8","2.5","left","74","-1","935","-0.0537968092814607","0","0","1","0","do not exclude"
"3","139","0","../static/images/invador4.png","1","80","2","40","left","70","1","1056","0.473820135947823","0","0","1","0","do not exclude"
"3","140","0","../static/images/invador1.png","3","80","8","10","right","70","-1","1073","0.547948136517227","0","0","1","0","do not exclude"
"3","141","0","../static/images/invador4.png","1","80","2","40","left","70","1","1150","0.883704374390408","0","0","1","0","do not exclude"
"3","142","0","../static/images/invador3.png","4","20","8","2.5","left","74","-1","991","0.190389545535398","0","0","1","0","do not exclude"
"3","143","0","../static/images/invador4.png","1","80","2","40","left","70","1","857","-0.393913517776371","0","0","1","0","do not exclude"
"3","144","0","../static/images/invador4.png","1","80","2","40","right","74","1","939","-0.0363549267945422","0","0","1","0","do not exclude"
"3","145","0","../static/images/invador4.png","1","80","2","40","right","74","1","857","-0.393913517776371","0","0","1","0","do not exclude"
"3","146","0","../static/images/invador2.png","2","20","2","10","left","74","-1","1036","0.386610723513231","0","0","1","0","do not exclude"
"3","147","0","../static/images/invador4.png","1","80","2","40","left","70","1","901","-0.202052810420268","0","0","1","0","do not exclude"
"3","148","0","../static/images/invador3.png","4","20","8","2.5","left","74","-1","876","-0.311064575963508","0","0","1","0","do not exclude"
"3","149","0","../static/images/invador4.png","1","80","2","40","left","70","1","917","-0.132285280472594","0","0","1","0","do not exclude"
"3","150","0","../static/images/invador4.png","1","80","2","40","right","70","-1","816","-0.572692813267285","2","0","1","0","do not exclude"
"3","151","0","../static/images/invador1.png","3","80","8","10","right","70","-1","1019","0.312482722943827","0","0","1","0","do not exclude"
"3","152","0","../static/images/invador4.png","1","80","2","40","right","74","1","936","-0.0494363386597311","0","0","1","0","do not exclude"
"3","153","0","../static/images/invador2.png","2","20","2","10","right","70","-1","909","-0.167169045446431","0","0","1","0","do not exclude"
"3","154","0","../static/images/invador4.png","1","80","2","40","left","70","1","800","-0.642460343214959","0","0","1","0","do not exclude"
"3","155","0","../static/images/invador4.png","1","80","2","40","left","70","1","960","0.0552149562617798","0","0","1","0","do not exclude"
"3","156","0","../static/images/invador1.png","3","80","8","10","left","74","-1","736","-0.921530463005655","0","0","1","0","do not exclude"
"3","157","0","../static/images/invador4.png","1","80","2","40","left","70","1","877","-0.306704105341779","0","0","1","0","do not exclude"
"3","158","0","../static/images/invador2.png","2","20","2","10","left","74","-1","856","-0.398273988398101","0","0","1","0","do not exclude"
"3","159","0","../static/images/invador3.png","4","20","8","2.5","left","74","-1","780","-0.729669755649552","0","0","1","0","do not exclude"
"3","160","0","../static/images/invador4.png","1","80","2","40","right","74","1","838","-0.476762459589234","1","0","1","0","do not exclude"
"3","161","2","../static/images/invador3.png","4","20","8","2.5","right","74","1","906","-0.18025045731162","0","0","1","0","do not exclude"
"3","162","2","../static/images/invador3.png","4","20","8","2.5","right","74","1","1134","0.813936844442734","1","0","1","0","do not exclude"
"3","163","2","../static/images/invador3.png","4","20","8","2.5","left","74","-1","1102","0.674401784547386","0","0","1","0","do not exclude"
"3","164","2","../static/images/invador3.png","4","20","8","2.5","left","74","-1","1396","1.95638014733589","0","0","1","0","do not exclude"
"3","165","2","../static/images/invador3.png","4","20","8","2.5","right","70","-1","956","0.0377730737748613","2","0","1","0","do not exclude"
"3","166","2","../static/images/invador3.png","4","20","8","2.5","left","70","1","1115","0.731087902629871","0","0","1","0","do not exclude"
"3","167","2","../static/images/invador3.png","4","20","8","2.5","left","74","-1","1551","2.63225309370398","0","0","1","0","do not exclude"
"3","168","2","../static/images/invador3.png","4","20","8","2.5","left","70","1","770","-0.773274461866848","0","0","1","0","do not exclude"
"3","169","2","../static/images/invador3.png","4","20","8","2.5","right","74","1","807","-0.611937048862852","0","0","1","0","do not exclude"
"3","170","2","../static/images/invador3.png","4","20","8","2.5","left","70","1","758","-0.825600109327603","0","0","1","0","do not exclude"
