subj,trial_index_actual,block,stimulus,stim_rank,reward_percent,delay_s,profitability,stim_left_right,key_press,approach_avoid,rt,rt_z,force_trial,missed,order_condition,reward_sum,delay_sum,Q_arithmetic,opp_cost_arithmetic,Q_estimate,opp_cost_estimate,dv,dv_abs,choice_log_reg,reward_factor,delay_factor,stim_rank_factor,reward_factor_1back,delay_factor_1back,reward_factor_2back,delay_factor_2back,reward_factor_3back,delay_factor_3back,choice_log_reg_1back,choice_reward_1back_interaction,choice_delay_1back_interaction,change_delay,change_reward,stim_rank_factor_1back
2,0,1,../static/images/invador1.png,4,20,8,2.5,right,74,2,1253,1.132791893,0,0,1,0,2,0,0,7.70433917333123,61.6347133866498,-41.6347133866498,41.6347133866498,1,-1,-1,-1,NaN,NaN,NaN,NaN,NaN,NaN,NaN,NaN,NaN,0,0,NaN
2,2,1,../static/images/invador3.png,2,20,2,10,right,74,2,1185,0.859416502,0,0,1,20,22,0.909090909090909,1.81818181818182,7.14843388469582,14.2968677693916,5.70313223060837,5.70313223060837,1,-1,1,0,-1,-1,-1,-1,NaN,NaN,NaN,NaN,NaN,10,20,-1
2,3,1,../static/images/invador4.png,1,80,2,40,left,70,2,1148,0.710668127,0,0,1,40,26,1.53846153846154,3.07692307692308,7.10426686599075,14.2085337319815,65.7914662680185,65.7914662680185,1,1,1,1,-1,1,-1,-1,-1,-1,1,-1,1,10,0,0
2,6,1,../static/images/invador2.png,3,80,8,10,right,74,2,1351,1.526774075,0,0,1,120,42,2.85714285714286,22.8571428571429,7.04680099526722,56.3744079621377,23.6255920378623,23.6255920378623,1,1,-1,0,-1,-1,-1,-1,1,1,NaN,NaN,NaN,2,0,-1
2,9,1,../static/images/invador3.png,2,20,2,10,left,74,1,1428,1.836331504,0,0,1,280,64,4.375,8.75,7.26002560081862,14.5200512016372,5.47994879836276,5.47994879836276,0,-1,1,0,1,-1,-1,-1,1,-1,1,1,-1,2,0,0
2,10,1,../static/images/invador1.png,4,20,8,2.5,left,74,1,1084,0.453373641,0,0,1,280,66,4.24242424242424,33.9393939393939,7.19867434179851,57.5893947343881,-37.5893947343881,37.5893947343881,0,-1,-1,-1,-1,1,1,-1,-1,-1,0,-0,0,10,80,0
2,12,1,../static/images/invador4.png,1,80,2,40,left,70,2,1391,1.687583129,0,0,1,280,70,4,8,7.07752279945285,14.1550455989057,65.8449544010943,65.8449544010943,1,1,1,1,-1,-1,-1,-1,-1,1,0,-0,-0,2,0,-1
2,15,1,../static/images/invador2.png,3,80,8,10,left,70,2,1337,1.470490906,0,0,1,380,86,4.41860465116279,35.3488372093023,7.0971400195742,56.7771201565936,23.2228798434064,23.2228798434064,1,1,-1,0,1,1,-1,-1,1,1,0,0,0,10,20,1
2,16,1,../static/images/invador1.png,4,20,8,2.5,left,74,1,1118,0.590061337,0,0,1,460,96,4.79166666666667,38.3333333333333,7.23358012120785,57.8686409696628,-37.8686409696628,37.8686409696628,0,-1,-1,-1,1,-1,1,1,-1,-1,1,1,-1,2,0,0
2,18,1,../static/images/invador1.png,4,20,8,2.5,left,74,1,1043,0.288544361,0,0,1,460,100,4.6,36.8,7.11184112500451,56.8947290000361,-36.8947290000361,36.8947290000361,0,-1,-1,-1,-1,-1,-1,-1,1,-1,0,-0,-0,2,0,-1
2,19,1,../static/images/invador3.png,2,20,2,10,left,74,1,1159,0.754890617,0,0,1,460,102,4.50980392156863,9.01960784313725,7.0517421073205,14.103484214641,5.89651578535901,5.89651578535901,0,-1,1,0,-1,-1,-1,-1,-1,-1,0,-0,-0,2,0,-1
2,20,1,../static/images/invador1.png,4,20,8,2.5,left,74,1,1033,0.248342097,0,0,1,460,104,4.42307692307692,35.3846153846154,6.99215095980162,55.937207678413,-35.937207678413,35.937207678413,0,-1,-1,-1,-1,1,-1,-1,-1,-1,0,-0,0,2,0,0
2,24,1,../static/images/invador4.png,1,80,2,40,right,74,2,1044,0.292564587,0,0,1,480,122,3.9344262295082,7.86885245901639,6.55739915991739,13.1147983198348,66.8852016801652,66.8852016801652,1,1,1,1,-1,1,-1,-1,-1,-1,1,-1,1,10,0,0
2,25,1,../static/images/invador1.png,4,20,8,2.5,left,74,1,1058,0.348847756,0,0,1,560,126,4.44444444444444,35.5555555555556,6.88044125173249,55.0435300138599,-35.0435300138599,35.0435300138599,0,-1,-1,-1,1,1,-1,1,-1,-1,1,1,1,4,20,1
2,26,1,../static/images/invador2.png,3,80,8,10,left,70,2,1467,1.993120331,0,0,1,560,128,4.375,35,6.82229769183099,54.5783815346479,25.4216184653521,25.4216184653521,1,1,-1,0,-1,-1,1,1,-1,1,0,-0,-0,4,80,-1
2,27,1,../static/images/invador1.png,4,20,8,2.5,left,74,1,872,-0.398914345,0,0,1,640,138,4.63768115942029,37.1014492753623,6.97172261931458,55.7737809545166,-35.7737809545166,35.7737809545166,0,-1,-1,-1,1,-1,-1,-1,1,1,1,1,-1,2,0,0
2,28,1,../static/images/invador1.png,4,20,8,2.5,left,74,1,828,-0.575804304,0,0,1,640,140,4.57142857142857,36.5714285714286,6.91280768102763,55.302461448221,-35.302461448221,35.302461448221,0,-1,-1,-1,-1,-1,1,-1,-1,-1,0,-0,-0,10,80,-1
2,31,1,../static/images/invador1.png,4,20,8,2.5,left,74,1,974,0.011148743,0,0,1,640,146,4.38356164383562,35.0684931506849,6.73903325701622,53.9122660561298,-33.9122660561298,33.9122660561298,0,-1,-1,-1,-1,-1,1,1,-1,-1,0,-0,-0,2,0,-1
2,32,1,../static/images/invador1.png,4,20,8,2.5,right,70,1,935,-0.145640085,0,0,1,640,148,4.32432432432432,34.5945945945946,6.6820846734121,53.4566773872968,-33.4566773872968,33.4566773872968,0,-1,-1,-1,-1,-1,-1,-1,1,1,0,-0,-0,2,0,-1
2,33,1,../static/images/invador3.png,2,20,2,10,right,70,1,1326,1.426268417,0,0,1,640,150,4.26666666666667,8.53333333333333,6.62561733705084,13.2512346741017,6.74876532589832,6.74876532589832,0,-1,1,0,-1,-1,-1,-1,-1,-1,0,-0,-0,2,0,-1
2,34,1,../static/images/invador2.png,3,80,8,10,right,70,1,749,-0.893402185,0,0,1,640,152,4.21052631578947,33.6842105263158,6.56962718112527,52.5570174490021,27.4429825509979,27.4429825509979,0,1,-1,0,-1,1,-1,-1,-1,-1,0,-0,0,2,0,0
2,35,1,../static/images/invador1.png,4,20,8,2.5,right,70,1,1001,0.119694854,0,0,1,640,154,4.15584415584416,33.2467532467532,6.51411017319498,52.1128813855598,-32.1128813855598,32.1128813855598,0,-1,-1,-1,1,-1,-1,1,-1,-1,0,0,-0,2,0,0
2,37,1,../static/images/invador1.png,4,20,8,2.5,left,74,1,1052,0.324726398,0,0,1,640,158,4.05063291139241,32.4050632911392,6.40447964165256,51.2358371332205,-31.2358371332205,31.2358371332205,0,-1,-1,-1,1,-1,-1,-1,1,-1,0,0,-0,2,0,0
2,40,1,../static/images/invador3.png,2,20,2,10,right,70,1,1271,1.205155968,0,0,1,680,180,3.77777777777778,7.55555555555556,5.99479097675778,11.9895819535156,8.01041804648443,8.01041804648443,0,-1,1,0,-1,-1,-1,-1,-1,-1,1,-1,-1,10,20,-1
2,41,1,../static/images/invador4.png,1,80,2,40,left,70,2,925,-0.185842348,0,0,1,680,182,3.73626373626374,7.47252747252747,5.94413165484782,11.8882633096956,68.1117366903044,68.1117366903044,1,1,1,1,-1,1,-1,-1,-1,-1,0,-0,0,10,20,0
2,42,1,../static/images/invador2.png,3,80,8,10,right,74,2,1358,1.55491566,0,0,1,760,186,4.08602150537634,32.6881720430108,6.28108059587241,50.2486447669792,29.7513552330208,29.7513552330208,1,1,-1,0,1,1,-1,1,-1,-1,1,1,1,2,0,1
2,43,1,../static/images/invador1.png,4,20,8,2.5,right,70,1,1004,0.131755533,0,0,1,840,196,4.28571428571429,34.2857142857143,6.45607512828453,51.6486010262763,-31.6486010262763,31.6486010262763,0,-1,-1,-1,1,-1,1,1,-1,1,1,1,-1,4,80,0
2,44,1,../static/images/invador1.png,4,20,8,2.5,left,74,1,798,-0.696411094,0,0,1,840,198,4.24242424242424,33.9393939393939,6.4015176984314,51.2121415874512,-31.2121415874512,31.2121415874512,0,-1,-1,-1,-1,-1,1,-1,1,1,0,-0,-0,10,80,-1
2,45,1,../static/images/invador4.png,1,80,2,40,left,70,2,1108,0.549859073,0,0,1,840,200,4.2,8.4,6.34742130924043,12.6948426184809,67.3051573815191,67.3051573815191,1,1,1,1,-1,-1,-1,-1,1,-1,0,-0,-0,2,0,-1
2,47,1,../static/images/invador3.png,2,20,2,10,right,70,1,1454,1.940857389,0,0,1,920,206,4.46601941747573,8.93203883495146,6.61881562588129,13.2376312517626,6.76236874823743,6.76236874823743,0,-1,1,0,-1,-1,1,1,-1,-1,0,-0,-0,4,80,-1
2,48,1,../static/images/invador1.png,4,20,8,2.5,left,74,1,818,-0.616006567,0,0,1,920,208,4.42307692307692,35.3846153846154,6.56288294820258,52.5030635856206,-32.5030635856206,32.5030635856206,0,-1,-1,-1,-1,1,-1,-1,1,1,0,-0,0,2,0,0
2,49,1,../static/images/invador1.png,4,20,8,2.5,left,74,1,999,0.111654401,0,0,1,920,210,4.38095238095238,35.0476190476191,6.50742293279597,52.0593834623677,-32.0593834623677,32.0593834623677,0,-1,-1,-1,-1,-1,-1,1,-1,-1,0,-0,-0,2,0,-1
2,50,1,../static/images/invador4.png,1,80,2,40,right,74,2,1125,0.618202921,0,0,1,920,212,4.33962264150943,8.67924528301887,6.45243158540205,12.9048631708041,67.0951368291959,67.0951368291959,1,1,1,1,-1,-1,-1,-1,-1,1,0,-0,-0,2,0,-1
2,51,1,../static/images/invador2.png,3,80,8,10,left,70,2,1417,1.792109014,0,0,1,1000,216,4.62962962962963,37.037037037037,6.7778539895908,54.2228319167264,25.7771680832736,25.7771680832736,1,1,-1,0,1,1,-1,-1,-1,-1,1,1,1,2,0,1
2,52,1,../static/images/invador1.png,4,20,8,2.5,right,70,1,1036,0.260402776,0,0,1,1080,226,4.7787610619469,38.2300884955752,6.92937864362835,55.4350291490268,-35.4350291490268,35.4350291490268,0,-1,-1,-1,1,-1,1,1,-1,-1,1,1,-1,4,80,0
2,53,1,../static/images/invador1.png,4,20,8,2.5,left,74,1,869,-0.410975024,0,0,1,1080,228,4.73684210526316,37.8947368421053,6.87082153551489,54.9665722841192,-34.9665722841192,34.9665722841192,0,-1,-1,-1,-1,-1,1,-1,1,1,0,-0,-0,10,80,-1
2,54,1,../static/images/invador1.png,4,20,8,2.5,left,74,1,790,-0.728572905,0,0,1,1080,230,4.69565217391304,37.5652173913044,6.8127592675721,54.5020741405768,-34.5020741405768,34.5020741405768,0,-1,-1,-1,-1,-1,-1,-1,1,-1,0,-0,-0,2,0,-1
2,55,1,../static/images/invador3.png,2,20,2,10,right,70,1,1106,0.54181862,0,0,1,1080,232,4.6551724137931,9.31034482758621,6.75518765812498,13.51037531625,6.48962468375004,6.48962468375004,0,-1,1,0,-1,-1,-1,-1,-1,-1,0,-0,-0,2,0,-1
2,57,1,../static/images/invador1.png,4,20,8,2.5,left,74,1,901,-0.282327781,0,0,1,1100,244,4.50819672131148,36.0655737704918,6.49958861596383,51.9967089277106,-31.9967089277106,31.9967089277106,0,-1,-1,-1,-1,-1,-1,1,-1,-1,1,-1,-1,2,0,-1
2,58,1,../static/images/invador2.png,3,80,8,10,left,70,2,1369,1.599138149,0,0,1,1100,246,4.47154471544715,35.7723577235772,6.44466347290963,51.557307783277,28.442692216723,28.442692216723,1,1,-1,0,-1,-1,-1,-1,-1,1,0,-0,-0,10,20,-1
2,59,1,../static/images/invador1.png,4,20,8,2.5,right,70,1,819,-0.611986341,0,0,1,1180,256,4.609375,36.875,6.61192959176988,52.895436734159,-32.895436734159,32.895436734159,0,-1,-1,-1,1,-1,-1,-1,-1,-1,1,1,-1,2,0,0
2,60,1,../static/images/invador1.png,4,20,8,2.5,right,70,1,750,-0.889381959,0,0,1,1180,258,4.57364341085271,36.5891472868217,6.55605510491385,52.4484408393108,-32.4484408393108,32.4484408393108,0,-1,-1,-1,-1,-1,1,-1,-1,-1,0,-0,-0,10,80,-1
2,61,1,../static/images/invador4.png,1,80,2,40,right,74,2,1400,1.723765166,0,0,1,1180,260,4.53846153846154,9.07692307692308,6.50065278858506,13.0013055771701,66.9986944228299,66.9986944228299,1,1,1,1,-1,-1,-1,-1,1,-1,0,-0,-0,2,0,-1
2,63,1,../static/images/invador3.png,2,20,2,10,right,70,1,829,-0.571784077,0,0,1,1280,268,4.77611940298507,9.55223880597015,6.78814948925037,13.5762989785007,6.42370102149926,6.42370102149926,0,-1,1,0,-1,1,1,1,-1,-1,1,-1,1,4,80,0
2,64,1,../static/images/invador4.png,1,80,2,40,left,70,2,1057,0.344827529,0,0,1,1280,270,4.74074074074074,9.48148148148148,6.73078584613385,13.4615716922677,66.5384283077323,66.5384283077323,1,1,1,1,-1,1,-1,1,1,1,0,-0,0,4,20,0
2,65,1,../static/images/invador1.png,4,20,8,2.5,left,74,1,949,-0.089356916,0,0,1,1360,274,4.96350364963504,39.7080291970803,7.04989610970074,56.3991688776059,-36.3991688776059,36.3991688776059,0,-1,-1,-1,1,1,-1,1,-1,1,1,1,1,2,0,1
2,66,1,../static/images/invador2.png,3,80,8,10,right,74,2,1113,0.569960205,0,0,1,1360,276,4.92753623188406,39.4202898550725,6.99032056188968,55.9225644951174,24.0774355048826,24.0774355048826,1,1,-1,0,-1,-1,1,1,-1,1,0,-0,-0,4,80,-1
2,68,1,../static/images/invador1.png,4,20,8,2.5,left,74,1,976,0.019189195,0,0,1,1440,288,5,40,7.07153956690038,56.5723165352031,-36.5723165352031,36.5723165352031,0,-1,-1,-1,-1,-1,1,-1,-1,-1,0,-0,-0,10,80,-1
2,69,1,../static/images/invador1.png,4,20,8,2.5,left,74,1,752,-0.881341506,0,0,1,1440,290,4.96551724137931,39.7241379310345,7.01178111982398,56.0942489585919,-36.0942489585919,36.0942489585919,0,-1,-1,-1,-1,-1,-1,-1,1,-1,0,-0,-0,2,0,-1
2,71,1,../static/images/invador1.png,4,20,8,2.5,left,74,1,882,-0.358712081,0,0,1,1520,296,5.13513513513514,41.0810810810811,7.26660956806843,58.1328765445474,-38.1328765445474,38.1328765445474,0,-1,-1,-1,1,1,-1,-1,-1,-1,1,1,1,2,0,1
2,72,1,../static/images/invador1.png,4,20,8,2.5,left,74,1,825,-0.587864983,0,0,1,1520,298,5.1006711409396,40.8053691275168,7.20520267085883,57.6416213668706,-37.6416213668706,37.6416213668706,0,-1,-1,-1,-1,-1,1,1,-1,-1,0,-0,-0,4,80,-1
2,73,1,../static/images/invador1.png,4,20,8,2.5,right,70,1,663,-1.239141651,0,0,1,1520,300,5.06666666666667,40.5333333333333,7.14431469612464,57.1545175689971,-37.1545175689971,37.1545175689971,0,-1,-1,-1,-1,-1,-1,-1,1,1,0,-0,-0,2,0,-1
2,74,1,../static/images/invador3.png,2,20,2,10,left,74,1,673,-1.198939387,0,0,1,1520,302,5.03311258278146,10.0662251655629,7.08394125868199,14.167882517364,5.83211748263602,5.83211748263602,0,-1,1,0,-1,-1,-1,-1,-1,-1,0,-0,-0,2,0,-1
2,76,1,../static/images/invador1.png,4,20,8,2.5,right,70,1,806,-0.664249283,0,0,1,1600,314,5.09554140127389,40.7643312101911,7.16396990009802,57.3117592007841,-37.3117592007841,37.3117592007841,0,-1,-1,-1,1,-1,-1,1,-1,-1,1,1,-1,2,0,0
2,77,1,../static/images/invador1.png,4,20,8,2.5,right,70,1,784,-0.752694263,0,0,1,1600,316,5.06329113924051,40.5063291139241,7.10343036523693,56.8274429218954,-36.8274429218954,36.8274429218954,0,-1,-1,-1,-1,-1,1,-1,-1,1,0,-0,-0,10,80,-1
2,81,1,../static/images/invador1.png,4,20,8,2.5,right,70,1,1041,0.280503908,0,0,1,1680,332,5.06024096385542,40.4819277108434,7.0654567958084,56.5236543664672,-36.5236543664672,36.5236543664672,0,-1,-1,-1,1,1,1,-1,-1,-1,0,0,0,10,80,1
2,82,1,../static/images/invador3.png,2,20,2,10,left,74,1,1091,0.481515225,0,0,1,1680,334,5.02994011976048,10.059880239521,7.00574975153488,14.0114995030698,5.98850049693024,5.98850049693024,0,-1,1,0,-1,-1,1,1,1,-1,0,-0,-0,2,0,-1
2,83,1,../static/images/invador1.png,4,20,8,2.5,right,70,1,674,-1.194919161,0,0,1,1680,336,5,40,6.94654726503291,55.5723781202633,-35.5723781202633,35.5723781202633,0,-1,-1,-1,-1,1,-1,-1,1,1,0,-0,0,2,0,0
2,84,1,../static/images/invador1.png,4,20,8,2.5,right,70,1,826,-0.583844757,0,0,1,1680,338,4.97041420118343,39.7633136094675,6.88784507250836,55.1027605800668,-35.1027605800668,35.1027605800668,0,-1,-1,-1,-1,-1,-1,1,-1,-1,0,-0,-0,2,0,-1
2,85,1,../static/images/invador3.png,2,20,2,10,right,70,1,1264,1.177014383,0,0,1,1680,340,4.94117647058824,9.88235294117647,6.82963894619853,13.6592778923971,6.34072210760293,6.34072210760293,0,-1,1,0,-1,-1,-1,-1,-1,1,0,-0,-0,2,0,-1
2,88,1,../static/images/invador1.png,4,20,8,2.5,left,74,1,863,-0.435096382,0,0,1,1780,362,4.9171270718232,39.3370165745856,6.7312713250623,53.8501706004984,-33.8501706004984,33.8501706004984,0,-1,-1,-1,1,-1,-1,-1,-1,1,1,1,-1,10,20,0
2,89,1,../static/images/invador1.png,4,20,8,2.5,left,74,1,737,-0.941644901,0,0,1,1780,364,4.89010989010989,39.1208791208791,6.67438833410537,53.3951066728429,-33.3951066728429,33.3951066728429,0,-1,-1,-1,-1,-1,1,-1,-1,-1,0,-0,-0,10,80,-1
2,90,1,../static/images/invador4.png,1,80,2,40,left,70,2,1025,0.216180286,0,0,1,1780,366,4.86338797814208,9.72677595628415,6.6179860360969,13.2359720721938,66.7640279278062,66.7640279278062,1,1,1,1,-1,-1,-1,-1,1,-1,0,-0,-0,2,0,-1
2,91,1,../static/images/invador1.png,4,20,8,2.5,right,70,1,867,-0.419015476,0,0,1,1860,370,5.02702702702703,40.2162162162162,6.93965422085817,55.5172337668654,-35.5172337668654,35.5172337668654,0,-1,-1,-1,1,1,-1,-1,-1,-1,1,1,1,2,0,1
2,93,1,../static/images/invador3.png,2,20,2,10,right,70,1,1515,2.186091196,0,0,1,1860,374,4.97326203208556,9.94652406417112,6.82286190990158,13.6457238198032,6.35427618019684,6.35427618019684,0,-1,1,0,-1,-1,-1,-1,1,1,0,-0,-0,2,0,-1
2,94,1,../static/images/invador2.png,3,80,8,10,right,74,2,1325,1.42224819,0,0,1,1860,376,4.9468085106383,39.5744680851064,6.76520492750119,54.1216394200095,25.8783605799905,25.8783605799905,1,1,-1,0,-1,1,-1,-1,-1,-1,0,-0,0,2,0,0
2,95,1,../static/images/invador4.png,1,80,2,40,left,70,2,1044,0.292564587,0,0,1,1940,386,5.0259067357513,10.0518134715026,6.91732718187835,13.8346543637567,66.1653456362433,66.1653456362433,1,1,1,1,1,-1,-1,1,-1,-1,1,1,-1,2,0,0
2,96,1,../static/images/invador1.png,4,20,8,2.5,right,70,1,683,-1.158737124,0,0,1,2020,390,5.17948717948718,41.4358974358974,7.23220731388586,57.8576585110869,-37.8576585110869,37.8576585110869,0,-1,-1,-1,1,1,1,-1,-1,1,1,1,1,10,80,1
2,97,1,../static/images/invador1.png,4,20,8,2.5,right,70,1,705,-1.070292144,0,0,1,2020,392,5.1530612244898,41.2244897959184,7.17109113488076,57.368729079046,-37.368729079046,37.368729079046,0,-1,-1,-1,-1,-1,1,1,1,-1,0,-0,-0,4,80,-1
2,98,1,../static/images/invador4.png,1,80,2,40,right,74,2,1285,1.261439136,0,0,1,2020,394,5.12690355329949,10.253807106599,7.11049142162035,14.2209828432407,65.7790171567593,65.7790171567593,1,1,1,1,-1,-1,-1,-1,1,1,0,-0,-0,2,0,-1
2,100,1,../static/images/invador1.png,4,20,8,2.5,left,74,1,891,-0.322530044,0,0,1,2120,408,5.19607843137255,41.5686274509804,7.18832467927963,57.506597434237,-37.506597434237,37.506597434237,0,-1,-1,-1,-1,-1,1,1,-1,-1,1,-1,-1,4,80,-1
2,101,1,../static/images/invador2.png,3,80,8,10,right,70,1,575,-1.592921569,0,0,1,2120,410,5.17073170731707,41.3658536585366,7.12757933297267,57.0206346637814,22.9793653362186,22.9793653362186,0,1,-1,0,-1,-1,-1,-1,1,1,0,-0,-0,10,20,-1
2,102,1,../static/images/invador1.png,4,20,8,2.5,right,70,1,464,-2.039166694,0,0,1,2120,412,5.14563106796117,41.1650485436893,7.06734731866762,56.538778549341,-36.538778549341,36.538778549341,0,-1,-1,-1,1,-1,-1,-1,-1,-1,0,0,-0,2,0,0
2,103,1,../static/images/invador1.png,4,20,8,2.5,left,74,1,733,-0.957725807,0,0,1,2120,414,5.1207729468599,40.9661835748792,7.00762429842322,56.0609943873857,-36.0609943873857,36.0609943873857,0,-1,-1,-1,-1,-1,1,-1,-1,-1,0,-0,-0,2,0,-1
2,104,1,../static/images/invador3.png,2,20,2,10,left,74,1,1159,0.754890617,0,0,1,2120,416,5.09615384615385,10.1923076923077,6.94840597095621,13.8968119419124,6.10318805808758,6.10318805808758,0,-1,1,0,-1,-1,-1,-1,1,-1,0,-0,-0,2,0,-1
2,105,1,../static/images/invador4.png,1,80,2,40,right,74,2,1157,0.746850164,0,0,1,2120,418,5.07177033492823,10.1435406698565,6.8896880713316,13.7793761426632,66.2206238573368,66.2206238573368,1,1,1,1,-1,1,-1,-1,-1,-1,0,-0,0,2,0,0
2,106,1,../static/images/invador1.png,4,20,8,2.5,left,74,1,744,-0.913503317,0,0,1,2200,422,5.21327014218009,41.7061611374408,7.20519496562389,57.6415597249911,-37.6415597249911,37.6415597249911,0,-1,-1,-1,1,1,-1,1,-1,-1,1,1,1,2,0,1
2,107,1,../static/images/invador1.png,4,20,8,2.5,right,70,1,721,-1.005968523,0,0,1,2200,424,5.18867924528302,41.5094339622642,7.14430705600323,57.1544564480258,-37.1544564480258,37.1544564480258,0,-1,-1,-1,-1,-1,1,1,-1,1,0,-0,-0,4,80,-1
2,109,1,../static/images/invador1.png,4,20,8,2.5,right,70,1,858,-0.455197513,0,0,1,2220,436,5.09174311926605,40.7339449541284,6.8671912871556,54.9375302972448,-34.9375302972448,34.9375302972448,0,-1,-1,-1,-1,-1,-1,-1,-1,-1,1,-1,-1,2,0,-1
2,111,1,../static/images/invador3.png,2,20,2,10,right,70,1,854,-0.471278419,0,0,1,2300,448,5.13392857142857,10.2678571428571,6.95920532411362,13.9184106482272,6.08158935177276,6.08158935177276,0,-1,1,0,1,-1,-1,-1,-1,-1,1,1,-1,2,0,0
2,112,1,../static/images/invador1.png,4,20,8,2.5,right,70,1,695,-1.110494408,0,0,1,2300,450,5.11111111111111,40.8888888888889,6.90039616394129,55.2031693115303,-35.2031693115303,35.2031693115303,0,-1,-1,-1,-1,1,1,-1,-1,-1,0,-0,0,10,80,0
2,113,1,../static/images/invador1.png,4,20,8,2.5,left,74,1,699,-1.094413502,0,0,1,2300,452,5.08849557522124,40.7079646017699,6.84208397391987,54.736671791359,-34.736671791359,34.736671791359,0,-1,-1,-1,-1,-1,-1,1,1,-1,0,-0,-0,2,0,-1
2,114,1,../static/images/invador3.png,2,20,2,10,right,70,1,630,-1.37180912,0,0,1,2300,454,5.06607929515418,10.1321585903084,6.78426455437486,13.5685291087497,6.43147089125028,6.43147089125028,0,-1,1,0,-1,-1,-1,-1,-1,1,0,-0,-0,2,0,-1
2,116,1,../static/images/invador1.png,4,20,8,2.5,left,74,1,891,-0.322530044,0,0,1,2300,458,5.02183406113537,40.174672489083,6.67008740516405,53.3606992413124,-33.3606992413124,33.3606992413124,0,-1,-1,-1,1,1,-1,1,-1,-1,0,0,0,2,0,1
2,118,1,../static/images/invador2.png,3,80,8,10,right,74,2,1253,1.132791893,0,0,1,2300,462,4.97835497835498,39.8268398268398,6.55783182332395,52.4626545865916,27.5373454134084,27.5373454134084,1,1,-1,0,-1,-1,-1,-1,1,1,0,-0,-0,2,0,-1
2,119,1,../static/images/invador1.png,4,20,8,2.5,left,74,1,853,-0.475298645,0,0,1,2380,472,5.04237288135593,40.3389830508475,6.71975134461343,53.7580107569074,-33.7580107569074,33.7580107569074,0,-1,-1,-1,1,-1,-1,-1,-1,-1,1,1,-1,2,0,0
2,120,1,../static/images/invador3.png,2,20,2,10,left,74,1,759,-0.853199922,0,0,1,2380,474,5.0210970464135,10.042194092827,6.66296570390611,13.3259314078122,6.67406859218779,6.67406859218779,0,-1,1,0,-1,-1,1,-1,-1,-1,0,-0,-0,10,80,-1
2,121,1,../static/images/invador2.png,3,80,8,10,right,74,2,1361,1.566976339,0,0,1,2380,476,5,40,6.60665993348344,52.8532794678675,27.1467205321325,27.1467205321325,1,1,-1,0,-1,1,-1,-1,1,-1,0,-0,0,2,0,0
2,126,1,../static/images/invador2.png,3,80,8,10,right,74,2,1444,1.900655125,0,0,1,2480,502,4.9402390438247,39.5219123505976,6.39951836859316,51.1961469487453,28.8038530512547,28.8038530512547,1,1,-1,0,1,1,-1,-1,-1,-1,0,0,0,2,0,1
2,127,1,../static/images/invador1.png,4,20,8,2.5,left,74,1,894,-0.310469365,0,0,1,2560,512,5,40,6.56891735149346,52.5513388119477,-32.5513388119477,32.5513388119477,0,-1,-1,-1,1,-1,1,1,-1,-1,1,1,-1,2,0,0
2,128,1,../static/images/invador3.png,2,20,2,10,left,74,1,968,-0.012972615,0,0,1,2560,514,4.98054474708171,9.96108949416342,6.51340634201882,13.0268126840376,6.97318731596235,6.97318731596235,0,-1,1,0,-1,-1,1,-1,1,1,0,-0,-0,10,80,-1
2,129,1,../static/images/invador4.png,1,80,2,40,left,70,2,1214,0.976003066,0,0,1,2560,516,4.96124031007752,9.92248062015504,6.45836443148516,12.9167288629703,67.0832711370297,67.0832711370297,1,1,1,1,-1,1,-1,-1,1,-1,0,-0,0,2,0,0
2,130,1,../static/images/invador1.png,4,20,8,2.5,right,70,1,704,-1.074312371,0,0,1,2640,520,5.07692307692308,40.6153846153846,6.78365229863227,54.2692183890582,-34.2692183890582,34.2692183890582,0,-1,-1,-1,1,1,-1,1,-1,-1,1,1,1,2,0,1
2,131,1,../static/images/invador1.png,4,20,8,2.5,left,74,1,853,-0.475298645,0,0,1,2640,522,5.05747126436782,40.4597701149425,6.7263266592807,53.8106132742456,-33.8106132742456,33.8106132742456,0,-1,-1,-1,-1,-1,1,1,-1,1,0,-0,-0,4,80,-1
2,133,1,../static/images/invador2.png,3,80,8,10,left,74,1,1959,3.971071694,0,0,1,2640,526,5.01901140684411,40.1520912547529,6.61312458756578,52.9049967005262,27.0950032994738,27.0950032994738,0,1,-1,0,-1,-1,-1,-1,-1,-1,0,-0,-0,2,0,-1
2,135,1,../static/images/invador1.png,4,20,8,2.5,left,74,1,1152,0.726749032,0,0,1,2640,538,4.90706319702602,39.2565055762082,6.2848216017752,50.2785728142016,-30.2785728142016,30.2785728142016,0,-1,-1,-1,-1,1,1,-1,-1,-1,NaN,NaN,NaN,2,0,0
2,137,1,../static/images/invador1.png,4,20,8,2.5,right,70,1,950,-0.08533669,0,0,1,2640,542,4.87084870848708,38.9667896678967,6.17904992851012,49.4323994280809,-29.4323994280809,29.4323994280809,0,-1,-1,-1,-1,-1,-1,-1,-1,1,0,-0,-0,2,0,-1
2,140,1,../static/images/invador2.png,3,80,8,10,right,74,2,1414,1.780048335,0,0,1,2720,550,4.94545454545455,39.5636363636364,6.40903832361386,51.2723065889109,28.7276934110891,28.7276934110891,1,1,-1,0,1,1,-1,-1,-1,-1,1,1,1,2,0,1
2,141,1,../static/images/invador1.png,4,20,8,2.5,right,70,1,1084,0.453373641,0,0,1,2800,560,5,40,6.57798753970037,52.623900317603,-32.623900317603,32.623900317603,0,-1,-1,-1,1,-1,1,1,-1,-1,1,1,-1,4,80,0
2,142,1,../static/images/invador4.png,1,80,2,40,right,74,2,1236,1.064448045,0,0,1,2800,562,4.98220640569395,9.9644128113879,6.52239988208472,13.0447997641694,66.9552002358306,66.9552002358306,1,1,1,1,-1,-1,1,-1,1,1,0,-0,-0,10,80,-1
2,143,1,../static/images/invador1.png,4,20,8,2.5,right,70,1,823,-0.595905436,0,0,1,2880,566,5.08833922261484,40.7067137809187,6.84623564008177,54.7698851206541,-34.7698851206541,34.7698851206541,0,-1,-1,-1,1,1,-1,-1,1,-1,1,1,1,2,0,1
2,145,1,../static/images/invador1.png,4,20,8,2.5,left,74,1,839,-0.531581814,0,0,1,2880,570,5.05263157894737,40.4210526315789,6.73101553597985,53.8481242878388,-33.8481242878388,33.8481242878388,0,-1,-1,-1,-1,1,-1,-1,1,1,0,-0,0,2,0,0
2,146,1,../static/images/invador1.png,4,20,8,2.5,left,74,1,785,-0.748674037,0,0,1,2880,572,5.03496503496504,40.2797202797203,6.6741347065831,53.3930776526648,-33.3930776526648,33.3930776526648,0,-1,-1,-1,-1,-1,-1,1,-1,-1,0,-0,-0,2,0,-1
2,148,1,../static/images/invador1.png,4,20,8,2.5,left,74,1,1143,0.690566995,0,0,1,2880,576,5,40,6.56181100986712,52.494488078937,-32.494488078937,32.494488078937,0,-1,-1,-1,1,1,-1,-1,-1,-1,0,0,0,2,0,1
2,149,1,../static/images/invador1.png,4,20,8,2.5,left,74,1,846,-0.50344023,0,0,1,2880,578,4.98269896193772,39.8615916955017,6.50636005293635,52.0508804234908,-32.0508804234908,32.0508804234908,0,-1,-1,-1,-1,-1,1,1,-1,-1,0,-0,-0,2,0,-1
2,150,1,../static/images/invador1.png,4,20,8,2.5,right,70,1,778,-0.776815621,0,0,1,2880,580,4.96551724137931,39.7241379310345,6.4513776874691,51.6110214997528,-31.6110214997528,31.6110214997528,0,-1,-1,-1,-1,-1,-1,-1,1,1,0,-0,-0,2,0,-1
2,151,-1,../static/images/invador4.png,1,80,2,40,right,74,2,1298,1.313702079,0,0,1,2880,582,4.94845360824742,9.89690721649485,6.39685995360659,12.7937199072132,67.2062800927868,67.2062800927868,1,1,1,1,-1,-1,-1,-1,-1,-1,0,-0,-0,2,0,-1
2,153,-1,../static/images/invador4.png,1,80,2,40,left,70,2,1222,1.008164877,0,0,1,2960,588,5.03401360544218,10.0680272108844,6.66672485754999,13.3334497151,66.6665502849,66.6665502849,1,1,1,1,-1,1,1,1,-1,-1,0,-0,0,4,80,0
2,154,-1,../static/images/invador4.png,1,80,2,40,left,70,2,1022,0.204119607,0,0,1,3040,592,5.13513513513514,10.2702702702703,6.98728780938274,13.9745756187655,66.0254243812345,66.0254243812345,1,1,1,1,1,1,-1,1,1,1,1,1,1,2,0,1
2,155,-1,../static/images/invador3.png,2,20,2,10,right,70,1,761,-0.845159469,0,0,1,3120,596,5.23489932885906,10.4697986577181,7.30058146910978,14.6011629382196,5.39883706178044,5.39883706178044,0,-1,1,0,1,1,1,1,-1,1,1,1,1,4,80,1
2,156,-1,../static/images/invador4.png,1,80,2,40,right,74,2,1101,0.521717489,0,0,1,3120,598,5.21739130434783,10.4347826086957,7.23888749041937,14.4777749808387,65.5222250191613,65.5222250191613,1,1,1,1,-1,1,1,1,1,1,0,-0,0,4,80,0
2,158,-1,../static/images/invador4.png,1,80,2,40,left,70,2,1111,0.561919752,0,0,1,3280,606,5.41254125412541,10.8250825082508,7.84708886801923,15.6941777360385,64.3058222639615,64.3058222639615,1,1,1,1,1,1,1,1,-1,1,1,1,1,4,80,1
2,159,-1,../static/images/invador2.png,3,80,8,10,left,70,2,1214,0.976003066,0,0,1,3360,610,5.50819672131148,44.0655737704918,8.14088512477976,65.1270809982381,14.8729190017619,14.8729190017619,1,1,-1,0,1,1,1,1,1,1,1,1,1,4,80,1
2,160,-1,../static/images/invador1.png,4,20,8,2.5,right,70,1,848,-0.495399777,0,0,1,3440,620,5.54838709677419,44.3870967741936,8.22801386839186,65.8241109471349,-45.8241109471349,45.8241109471349,0,-1,-1,-1,1,-1,1,1,1,1,1,1,-1,4,80,0
2,162,-1,../static/images/invador3.png,2,20,2,10,left,74,1,1082,0.445333188,0,0,1,3440,624,5.51282051282051,11.025641025641,8.08953884878872,16.1790776975774,3.82092230242256,3.82092230242256,0,-1,1,0,1,-1,-1,-1,1,-1,0,0,-0,2,0,0
2,165,-1,../static/images/invador1.png,4,20,8,2.5,right,70,1,971,-0.000911936,0,0,1,3520,632,5.56962025316456,44.5569620253165,8.24079344647371,65.9263475717897,-45.9263475717897,45.9263475717897,0,-1,-1,-1,1,1,1,1,-1,1,0,0,0,4,80,1
2,166,-1,../static/images/invador4.png,1,80,2,40,left,70,2,1320,1.402147058,0,0,1,3520,634,5.55205047318612,11.1041009463722,8.17115415302428,16.3423083060486,63.6576916939514,63.6576916939514,1,1,1,1,-1,-1,1,1,1,1,0,-0,-0,2,0,-1
2,167,-1,../static/images/invador4.png,1,80,2,40,left,70,2,942,-0.1174985,0,0,1,3600,638,5.64263322884013,11.2852664576803,8.45760169651476,16.9152033930295,63.0847966069705,63.0847966069705,1,1,1,1,1,1,-1,-1,1,1,1,1,1,2,0,1
2,169,-1,../static/images/invador1.png,4,20,8,2.5,left,74,1,975,0.015168969,0,0,1,3680,652,5.6441717791411,45.1533742331288,8.37455475313831,66.9964380251065,-46.9964380251065,46.9964380251065,0,-1,-1,-1,1,-1,1,1,1,1,NaN,NaN,NaN,4,80,0
2,170,-1,../static/images/invador4.png,1,80,2,40,right,74,2,986,0.059391459,0,0,1,3680,654,5.62691131498471,11.2538226299694,8.30378510216354,16.6075702043271,63.3924297956729,63.3924297956729,1,1,1,1,-1,-1,1,-1,1,1,0,-0,-0,10,0,-1
2,171,-1,../static/images/invador4.png,1,80,2,40,right,74,2,1213,0.971982839,0,0,1,3760,658,5.71428571428571,11.4285714285714,8.58722502076775,17.1744500415355,62.8255499584645,62.8255499584645,1,1,1,1,1,1,-1,-1,1,-1,1,1,1,2,0,1
2,172,-1,../static/images/invador4.png,1,80,2,40,right,74,2,1144,0.694587222,0,0,1,3840,662,5.80060422960725,11.6012084592145,8.86423747309436,17.7284749461887,62.2715250538113,62.2715250538113,1,1,1,1,1,1,1,1,-1,-1,1,1,1,4,80,1
2,173,-1,../static/images/invador3.png,2,20,2,10,right,70,1,915,-0.226044612,0,0,1,3920,666,5.88588588588589,11.7717717717718,9.13496821251133,18.2699364250227,1.73006357497733,1.73006357497733,0,-1,1,0,1,1,1,1,1,1,1,1,1,4,80,1
2,174,-1,../static/images/invador4.png,1,80,2,40,left,70,2,1059,0.352867982,0,0,1,3920,668,5.86826347305389,11.7365269461078,9.05777264437408,18.1155452887482,61.8844547112518,61.8844547112518,1,1,1,1,-1,1,1,1,1,1,0,-0,0,4,80,0
2,175,-1,../static/images/invador4.png,1,80,2,40,right,74,2,1087,0.46543432,0,0,1,4000,672,5.95238095238095,11.9047619047619,9.3241146555094,18.6482293110188,61.3517706889812,61.3517706889812,1,1,1,1,1,1,-1,1,1,1,1,1,1,2,0,1
2,176,-1,../static/images/invador1.png,4,20,8,2.5,right,70,1,778,-0.776815621,0,0,1,4080,676,6.03550295857988,48.2840236686391,9.58441692353688,76.675335388295,-56.675335388295,56.675335388295,0,-1,-1,-1,1,1,1,1,-1,1,1,1,1,4,80,1
2,177,-1,../static/images/invador2.png,3,80,8,10,left,74,1,1152,0.726749032,0,0,1,4080,678,6.01769911504425,48.141592920354,9.50342326351917,76.0273861081534,3.97261389184665,3.97261389184665,0,1,-1,0,-1,-1,1,1,1,1,0,-0,-0,4,80,-1
2,178,-1,../static/images/invador3.png,2,20,2,10,right,70,1,695,-1.110494408,0,0,1,4080,680,6,12,9.42311404502935,18.8462280900587,1.15377190994131,1.15377190994131,0,-1,1,0,1,-1,-1,-1,1,1,0,0,-0,2,0,0
2,179,-1,../static/images/invador4.png,1,80,2,40,left,70,2,1066,0.381009567,0,0,1,4080,682,5.98240469208211,11.9648093841642,9.34348348415538,18.6869669683108,61.3130330316892,61.3130330316892,1,1,1,1,-1,1,1,-1,-1,-1,0,-0,0,2,0,0
2,180,-1,../static/images/invador4.png,1,80,2,40,left,70,2,1008,0.147836438,0,0,1,4160,686,6.06413994169096,12.1282798833819,9.60334653214083,19.2066930642817,60.7933069357183,60.7933069357183,1,1,1,1,1,1,-1,1,1,-1,1,1,1,2,0,1
2,182,-1,../static/images/invador4.png,1,80,2,40,right,74,2,1174,0.815194012,0,0,1,4320,694,6.22478386167147,12.4495677233429,10.1055277916498,20.2110555832996,59.7889444167004,59.7889444167004,1,1,1,1,1,1,1,1,1,1,1,1,1,4,80,1
2,184,-1,../static/images/invador4.png,1,80,2,40,right,74,2,1227,1.028266008,0,0,1,4400,700,6.28571428571429,12.5714285714286,10.2606629380346,20.5213258760693,59.4786741239307,59.4786741239307,1,1,1,1,1,-1,1,1,1,1,0,0,-0,4,80,0
2,185,-1,../static/images/invador4.png,1,80,2,40,right,74,2,848,-0.495399777,0,0,1,4480,704,6.36363636363636,12.7272727272727,10.4997274335814,20.9994548671628,59.0005451328372,59.0005451328372,1,1,1,1,1,1,1,-1,1,1,1,1,1,2,0,1
2,188,-1,../static/images/invador4.png,1,80,2,40,right,74,2,1222,1.008164877,0,0,1,4580,714,6.41456582633053,12.8291316526611,10.5192632700905,21.038526540181,58.961473459819,58.961473459819,1,1,1,1,-1,1,-1,-1,1,1,1,-1,1,2,0,0
2,189,-1,../static/images/invador4.png,1,80,2,40,right,74,2,1293,1.293600947,0,0,1,4660,718,6.49025069637883,12.9805013927577,10.7524635778339,21.5049271556678,58.4950728443322,58.4950728443322,1,1,1,1,1,1,-1,1,-1,-1,1,1,1,4,20,1
2,191,-1,../static/images/invador1.png,4,20,8,2.5,left,74,1,975,0.015168969,0,0,1,4740,724,6.54696132596685,52.3756906077348,10.8875853962136,87.100683169709,-67.100683169709,67.100683169709,0,-1,-1,-1,-1,1,1,1,1,1,0,-0,0,4,80,0
2,193,-1,../static/images/invador4.png,1,80,2,40,right,74,2,1220,1.000124424,0,0,1,4820,736,6.54891304347826,13.0978260869565,10.7572879223906,21.5145758447812,58.4854241552188,58.4854241552188,1,1,1,1,1,-1,-1,-1,-1,1,1,1,-1,2,0,0
2,194,-1,../static/images/invador4.png,1,80,2,40,right,74,2,1185,0.859416502,0,0,1,4900,740,6.62162162162162,13.2432432432432,10.9850906297063,21.9701812594126,58.0298187405874,58.0298187405874,1,1,1,1,1,1,1,-1,-1,-1,1,1,1,10,80,1
2,195,-1,../static/images/invador4.png,1,80,2,40,right,74,2,1150,0.71870858,0,0,1,4980,744,6.69354838709677,13.3870967741935,11.207727536007,22.4154550720139,57.5845449279861,57.5845449279861,1,1,1,1,1,1,1,1,1,-1,1,1,1,4,80,1
2,196,-1,../static/images/invador2.png,3,80,8,10,right,70,1,1568,2.399163192,0,0,1,5060,748,6.76470588235294,54.1176470588235,11.4253157843259,91.4025262746075,-11.4025262746075,11.4025262746075,0,1,-1,0,1,1,1,1,1,1,1,1,1,4,80,1
2,197,-1,../static/images/invador4.png,1,80,2,40,left,70,2,1335,1.462450454,0,0,1,5060,750,6.74666666666667,13.4933333333333,11.3287655038432,22.6575310076865,57.3424689923135,57.3424689923135,1,1,1,1,1,-1,1,1,1,1,0,0,-0,4,80,0
2,198,-1,../static/images/invador3.png,2,20,2,10,left,74,1,847,-0.499420003,0,0,1,5140,754,6.81697612732096,13.6339522546419,11.5436090171919,23.0872180343838,-3.08721803438379,3.08721803438379,0,-1,1,0,1,1,1,-1,1,1,1,1,1,2,0,1
2,199,-1,../static/images/invador4.png,1,80,2,40,right,74,2,1147,0.706647901,0,0,1,5140,756,6.7989417989418,13.5978835978836,11.4460590930207,22.8921181860415,57.1078818139585,57.1078818139585,1,1,1,1,-1,1,1,1,1,-1,0,-0,0,4,80,0
2,200,-1,../static/images/invador4.png,1,80,2,40,left,70,2,1190,0.879517633,0,0,1,5220,760,6.86842105263158,13.7368421052632,11.6582427813429,23.3164855626858,56.6835144373142,56.6835144373142,1,1,1,1,1,1,-1,1,1,1,1,1,1,2,0,1
2,201,-1,../static/images/invador4.png,1,80,2,40,left,70,2,1198,0.911679444,0,0,1,5300,764,6.93717277486911,13.8743455497382,11.8656148555915,23.7312297111831,56.2687702888169,56.2687702888169,1,1,1,1,1,1,1,1,-1,1,1,1,1,4,80,1
2,202,-1,../static/images/invador1.png,4,20,8,2.5,right,70,1,852,-0.479318872,0,0,1,5380,768,7.00520833333333,56.0416666666667,12.0682844270286,96.5462754162291,-76.5462754162291,76.5462754162291,0,-1,-1,-1,1,1,1,1,1,1,1,1,1,4,80,1
2,204,-1,../static/images/invador1.png,4,20,8,2.5,left,74,1,960,-0.045134426,0,0,1,5400,774,6.97674418604651,55.8139534883721,11.8128806315726,94.5030450525806,-74.5030450525806,74.5030450525806,0,-1,-1,-1,-1,1,-1,-1,1,1,1,-1,1,2,0,0
2,205,-1,../static/images/invador2.png,3,80,8,10,left,74,1,772,-0.800936979,0,0,1,5400,776,6.95876288659794,55.6701030927835,11.7130552123179,93.7044416985435,-13.7044416985435,13.7044416985435,0,1,-1,0,-1,-1,-1,1,-1,-1,0,-0,-0,4,20,-1
2,206,-1,../static/images/invador4.png,1,80,2,40,right,74,2,999,0.111654401,0,0,1,5400,778,6.94087403598972,13.8817480719794,11.6140733734431,23.2281467468861,56.7718532531139,56.7718532531139,1,1,1,1,1,-1,-1,-1,-1,1,0,0,-0,2,0,0
2,207,-1,../static/images/invador4.png,1,80,2,40,left,70,2,1190,0.879517633,0,0,1,5480,782,7.0076726342711,14.0153452685422,11.8224470616534,23.6448941233068,56.3551058766932,56.3551058766932,1,1,1,1,1,1,1,-1,-1,-1,1,1,1,2,0,1
2,208,-1,../static/images/invador4.png,1,80,2,40,left,70,2,1146,0.702627674,0,0,1,5560,786,7.07379134860051,14.147582697201,12.0260955338085,24.0521910676169,55.9478089323831,55.9478089323831,1,1,1,1,1,1,1,1,1,-1,1,1,1,4,80,1
2,209,-1,../static/images/invador4.png,1,80,2,40,right,74,2,1207,0.947861481,0,0,1,5640,790,7.13924050632911,14.2784810126582,12.2251259419529,24.4502518839059,55.5497481160941,55.5497481160941,1,1,1,1,1,1,1,1,1,1,1,1,1,4,80,1
2,210,-1,../static/images/invador2.png,3,80,8,10,right,70,1,980,0.035270101,0,0,1,5720,794,7.20403022670025,57.632241813602,12.4196430082828,99.3571440662625,-19.3571440662625,19.3571440662625,0,1,-1,0,1,1,1,1,1,1,1,1,1,4,80,1
2,212,-1,../static/images/invador4.png,1,80,2,40,left,70,2,1311,1.365965021,0,0,1,5720,798,7.16791979949875,14.3358395989975,12.2106241203052,24.4212482406103,55.5787517593897,55.5787517593897,1,1,1,1,-1,-1,1,-1,1,1,0,-0,-0,2,0,-1
2,213,-1,../static/images/invador4.png,1,80,2,40,right,74,2,1226,1.024245782,0,0,1,5800,802,7.23192019950125,14.4638403990025,12.4054700392895,24.8109400785789,55.1890599214211,55.1890599214211,1,1,1,1,1,1,-1,-1,1,-1,1,1,1,2,0,1
2,215,-1,../static/images/invador4.png,1,80,2,40,right,74,2,1201,0.923740123,0,0,1,5900,810,7.28395061728395,14.5679012345679,12.428200291825,24.85640058365,55.14359941635,55.14359941635,1,1,1,1,-1,1,1,1,1,1,1,-1,1,4,80,0
2,216,-1,../static/images/invador4.png,1,80,2,40,right,74,2,1206,0.943841255,0,0,1,5980,814,7.34643734643735,14.6928746928747,12.6181123133112,25.2362246266225,54.7637753733775,54.7637753733775,1,1,1,1,1,1,-1,1,1,1,1,1,1,4,20,1
2,217,-1,../static/images/invador1.png,4,20,8,2.5,right,70,1,864,-0.431076155,0,0,1,6060,818,7.40831295843521,59.2665036674817,12.8037177673958,102.429742139166,-82.4297421391661,82.4297421391661,0,-1,-1,-1,1,1,1,1,-1,1,1,1,1,4,80,1
2,218,-1,../static/images/invador4.png,1,80,2,40,left,70,2,1210,0.95992216,0,0,1,6060,820,7.39024390243902,14.780487804878,12.6955192226029,25.3910384452057,54.6089615547943,54.6089615547943,1,1,1,1,-1,-1,1,1,1,1,0,-0,-0,4,80,-1
2,219,-1,../static/images/invador3.png,2,20,2,10,right,70,1,729,-0.973806712,0,0,1,6140,824,7.45145631067961,14.9029126213592,12.8793693477218,25.7587386954436,-5.7587386954436,5.7587386954436,0,-1,1,0,1,1,-1,-1,1,1,1,1,1,2,0,1
2,220,-1,../static/images/invador4.png,1,80,2,40,left,70,2,1128,0.6302636,0,0,1,6140,826,7.43341404358353,14.8668280871671,12.7705315049491,25.5410630098982,54.4589369901018,54.4589369901018,1,1,1,1,-1,1,1,1,-1,-1,0,-0,0,4,80,0
2,222,-1,../static/images/invador2.png,3,80,8,10,left,74,1,933,-0.153680537,0,0,1,6300,834,7.55395683453237,60.431654676259,13.1306991711126,105.045593368901,-25.0455933689011,25.0455933689011,0,1,-1,0,1,1,1,1,-1,1,1,1,1,4,80,1
2,224,-1,../static/images/invador4.png,1,80,2,40,left,70,2,1240,1.080528951,0,0,1,6380,840,7.59523809523809,15.1904761904762,13.1962353949784,26.3924707899568,53.6075292100432,53.6075292100432,1,1,1,1,1,1,1,-1,1,1,1,1,1,2,0,1
2,226,-1,../static/images/invador4.png,1,80,2,40,right,74,2,1130,0.638304053,0,0,1,6540,848,7.7122641509434,15.4245283018868,13.5373148993695,27.074629798739,52.925370201261,52.925370201261,1,1,1,1,1,1,1,1,1,1,1,1,1,4,80,1
2,229,-1,../static/images/invador1.png,4,20,8,2.5,right,70,1,957,-0.057195105,0,0,1,6620,856,7.73364485981308,61.8691588785047,13.4714740716849,107.771792573479,-87.771792573479,87.771792573479,0,-1,-1,-1,1,-1,-1,1,1,1,0,0,-0,2,0,0
2,231,-1,../static/images/invador4.png,1,80,2,40,left,70,2,1309,1.357924569,0,0,1,6700,862,7.77262180974478,15.5452436194896,13.5264682293878,27.0529364587756,52.9470635412244,52.9470635412244,1,1,1,1,1,1,-1,-1,1,-1,1,1,1,2,0,1
2,233,-1,../static/images/invador1.png,4,20,8,2.5,right,70,1,806,-0.664249283,0,0,1,6860,870,7.88505747126437,63.0804597701149,13.8527404042867,110.821923234294,-90.8219232342936,90.8219232342936,0,-1,-1,-1,1,1,1,1,1,1,1,1,1,4,80,1
2,234,-1,../static/images/invador4.png,1,80,2,40,right,74,2,1320,1.402147058,0,0,1,6860,872,7.86697247706422,15.7339449541284,13.7356770340713,27.4713540681427,52.5286459318573,52.5286459318573,1,1,1,1,-1,-1,1,1,1,1,0,-0,-0,4,80,-1
2,236,-1,../static/images/invador4.png,1,80,2,40,right,74,2,1283,1.253398684,0,0,1,7020,886,7.92325056433409,15.8465011286682,13.7111731447772,27.4223462895545,52.5776537104455,52.5776537104455,1,1,1,1,1,-1,1,1,-1,-1,1,1,-1,4,80,0
2,237,-1,../static/images/invador3.png,2,20,2,10,right,70,1,911,-0.242125517,0,0,1,7100,890,7.97752808988764,15.9550561797753,13.8719916469454,27.7439832938909,-7.7439832938909,7.7439832938909,0,-1,1,0,1,1,1,-1,1,1,1,1,1,10,80,1
2,238,-1,../static/images/invador3.png,2,20,2,10,left,74,1,767,-0.821038111,0,0,1,7100,892,7.95964125560538,15.9192825112108,13.7547655930097,27.5095311860194,-7.50953118601941,7.50953118601941,0,-1,1,0,-1,1,1,1,1,-1,0,-0,0,4,80,0
2,240,-1,../static/images/invador4.png,1,80,2,40,left,70,2,1161,0.762931069,0,0,1,7180,898,7.99554565701559,15.9910913140312,13.8009959657151,27.6019919314301,52.3980080685699,52.3980080685699,1,1,1,1,1,1,-1,1,-1,1,1,1,1,2,0,1
2,242,-1,../static/images/invador4.png,1,80,2,40,right,74,2,1350,1.522753849,0,0,1,7260,904,8.03097345132743,16.0619469026549,13.8418096936848,27.6836193873695,52.3163806126305,52.3163806126305,1,1,1,1,-1,-1,1,1,1,1,0,-0,-0,4,80,-1
2,244,-1,../static/images/invador4.png,1,80,2,40,right,74,2,1365,1.583057244,0,0,1,7420,918,8.08278867102396,16.1655773420479,13.809998578086,27.6199971561719,52.3800028438281,52.3800028438281,1,1,1,1,1,-1,1,1,-1,-1,1,1,-1,4,80,0
2,245,-1,../static/images/invador4.png,1,80,2,40,right,74,2,1148,0.710668127,0,0,1,7500,922,8.13449023861171,16.2689804772234,13.9685760510333,27.9371521020666,52.0628478979334,52.0628478979334,1,1,1,1,1,1,1,-1,1,1,1,1,1,10,80,1
2,247,-1,../static/images/invador4.png,1,80,2,40,left,70,2,1373,1.615219055,0,0,1,7580,928,8.16810344827586,16.3362068965517,14.0042055933601,28.0084111867202,51.9915888132798,51.9915888132798,1,1,1,1,-1,-1,1,1,1,1,0,-0,-0,4,80,-1
2,248,-1,../static/images/invador3.png,2,20,2,10,right,70,1,867,-0.419015476,0,0,1,7660,932,8.21888412017167,16.4377682403433,14.1583791028583,28.3167582057167,-8.31675820571666,8.31675820571666,0,-1,1,0,1,1,-1,-1,1,1,1,1,1,2,0,1
2,250,-1,../static/images/invador4.png,1,80,2,40,right,74,2,1344,1.498632491,0,0,1,7660,936,8.18376068376068,16.3675213675214,13.9200978049441,27.8401956098881,52.1598043901119,52.1598043901119,1,1,1,1,1,1,-1,1,1,1,0,0,0,2,0,1
2,251,-1,../static/images/invador2.png,3,80,8,10,left,74,1,934,-0.149660311,0,0,1,7740,940,8.23404255319149,65.8723404255319,14.0761785968617,112.609428774894,-32.6094287748939,32.6094287748939,0,1,-1,0,1,1,1,1,-1,1,1,1,1,2,0,1
2,252,-1,../static/images/invador1.png,4,20,8,2.5,left,74,1,692,-1.122555087,0,0,1,7740,942,8.21656050955414,65.7324840764331,13.9572270494992,111.657816395993,-91.6578163959933,91.6578163959933,0,-1,-1,-1,1,-1,1,1,1,1,0,0,-0,4,80,0
2,255,-1,../static/images/invador4.png,1,80,2,40,right,74,2,1305,1.341843663,0,0,1,7760,950,8.16842105263158,16.3368421052632,13.5280935116724,27.0561870233448,52.9438129766552,52.9438129766552,1,1,1,1,1,1,-1,1,-1,-1,0,0,0,4,20,1
2,256,-1,../static/images/invador4.png,1,80,2,40,right,74,2,1322,1.410187511,0,0,1,7840,954,8.21802935010482,16.4360587002096,13.6930636455998,27.3861272911995,52.6138727088005,52.6138727088005,1,1,1,1,1,1,1,1,-1,1,1,1,1,2,0,1
2,257,-1,../static/images/invador4.png,1,80,2,40,right,74,2,1124,0.614182695,0,0,1,7920,958,8.26722338204593,16.5344467640919,13.8542928104433,27.7085856208866,52.2914143791134,52.2914143791134,1,1,1,1,1,1,1,1,1,1,1,1,1,4,80,1
2,260,-1,../static/images/invador3.png,2,20,2,10,right,70,1,937,-0.137599632,0,0,1,8160,976,8.36065573770492,16.7213114754098,13.9799361205696,27.9598722411392,-7.95987224113919,7.95987224113919,0,-1,1,0,1,1,1,-1,1,1,1,1,1,10,80,1
2,263,-1,../static/images/invador4.png,1,80,2,40,right,74,2,1326,1.426268417,0,0,1,8160,982,8.30957230142566,16.6191446028513,13.628507951414,27.257015902828,52.742984097172,52.742984097172,1,1,1,1,1,1,1,-1,-1,1,0,0,0,2,0,1
2,264,-1,../static/images/invador1.png,4,20,8,2.5,left,74,1,787,-0.740633584,0,0,1,8240,986,8.35699797160243,66.8559837728195,13.7912010227865,110.329608182292,-90.3296081822918,90.3296081822918,0,-1,-1,-1,1,1,1,1,1,-1,1,1,1,2,0,1
2,266,-1,../static/images/invador4.png,1,80,2,40,left,70,2,1270,1.201135741,0,0,1,8240,990,8.32323232323232,16.6464646464646,13.559099222458,27.118198444916,52.881801555084,52.881801555084,1,1,1,1,1,1,-1,-1,1,1,0,0,0,2,0,1
2,267,-1,../static/images/invador4.png,1,80,2,40,left,70,2,1052,0.324726398,0,0,1,8320,994,8.37022132796781,16.7404426559356,13.7233662509038,27.4467325018075,52.5532674981925,52.5532674981925,1,1,1,1,1,1,1,1,-1,-1,1,1,1,2,0,1
2,268,-1,../static/images/invador2.png,3,80,8,10,left,74,1,869,-0.410975024,0,0,1,8400,998,8.41683366733467,67.3346693386774,13.8839082543387,111.07126603471,-31.0712660347097,31.0712660347097,0,1,-1,0,1,1,1,1,1,1,1,1,1,4,80,1
2,270,-1,../static/images/invador4.png,1,80,2,40,left,70,2,1190,0.879517633,0,0,1,8400,1002,8.38323353293413,16.7664670658683,13.6502462189509,27.3004924379017,52.6995075620983,52.6995075620983,1,1,1,1,1,1,1,-1,1,1,0,0,0,2,0,1
2,272,-1,../static/images/invador1.png,4,20,8,2.5,right,70,1,910,-0.246145743,0,0,1,8500,1010,8.41584158415842,67.3267326732673,13.6171618791269,108.937295033015,-88.9372950330149,88.9372950330149,0,-1,-1,-1,-1,1,1,1,1,1,1,-1,1,4,80,0
2,273,-1,../static/images/invador4.png,1,80,2,40,right,74,2,1213,0.971982839,0,0,1,8500,1012,8.39920948616601,16.798418972332,13.5020892786293,27.0041785572586,52.9958214427414,52.9958214427414,1,1,1,1,-1,-1,-1,1,1,1,0,-0,-0,4,20,-1
2,275,-1,../static/images/invador2.png,3,80,8,10,right,70,1,1410,1.76396743,0,0,1,8580,1018,8.42829076620825,67.426326129666,13.5521498556671,108.417198845337,-28.4171988453367,28.4171988453367,0,1,-1,0,1,1,1,1,-1,-1,0,0,0,4,80,1
2,276,-1,../static/images/invador1.png,4,20,8,2.5,left,74,1,800,-0.688370642,0,0,1,8580,1020,8.41176470588235,67.2941176470588,13.4376266429693,107.501013143754,-87.501013143754,87.501013143754,0,-1,-1,-1,1,-1,1,1,1,1,0,0,-0,2,0,0
2,277,-1,../static/images/invador4.png,1,80,2,40,right,74,2,1067,0.385029793,0,0,1,8580,1022,8.39530332681018,16.7906066536204,13.3240712151901,26.6481424303803,53.3518575696197,53.3518575696197,1,1,1,1,-1,-1,1,-1,1,1,0,-0,-0,2,0,-1
2,279,-1,../static/images/invador4.png,1,80,2,40,left,70,2,1240,1.080528951,0,0,1,8680,1030,8.42718446601942,16.8543689320388,13.3056122555511,26.6112245111023,53.3887754888977,53.3887754888977,1,1,1,1,-1,1,1,1,-1,-1,1,-1,1,4,80,0
2,280,-1,../static/images/invador2.png,3,80,8,10,right,70,1,1084,0.453373641,0,0,1,8760,1034,8.47195357833656,67.7756286266925,13.4756275178364,107.805020142691,-27.8050201426915,27.8050201426915,0,1,-1,0,1,1,-1,1,1,1,1,1,1,4,20,1
2,282,-1,../static/images/invador1.png,4,20,8,2.5,left,74,1,876,-0.382833439,0,0,1,8760,1038,8.4393063583815,67.514450867052,13.2488367254843,105.990693803874,-85.9906938038742,85.9906938038742,0,-1,-1,-1,1,1,1,-1,1,1,0,0,0,2,0,1
2,283,-1,../static/images/invador3.png,2,20,2,10,right,70,1,636,-1.347687762,0,0,1,8760,1040,8.42307692307692,16.8461538461538,13.1368766776342,26.2737533552685,-6.27375335526846,6.27375335526846,0,-1,1,0,-1,-1,1,1,1,-1,0,-0,-0,2,0,-1
2,284,-1,../static/images/invador4.png,1,80,2,40,right,74,2,1090,0.477494999,0,0,1,8760,1042,8.40690978886756,16.8138195777351,13.0258627545327,26.0517255090653,53.9482744909347,53.9482744909347,1,1,1,1,-1,1,-1,-1,1,1,0,-0,0,2,0,0
2,285,-1,../static/images/invador4.png,1,80,2,40,left,70,2,1417,1.792109014,0,0,1,8840,1046,8.45124282982792,16.9024856596558,13.2022217968078,26.4044435936157,53.5955564063843,53.5955564063843,1,1,1,1,1,1,-1,1,-1,-1,1,1,1,2,0,1
2,286,-1,../static/images/invador4.png,1,80,2,40,right,74,2,1233,1.052387366,0,0,1,8920,1050,8.4952380952381,16.9904761904762,13.374581607773,26.7491632155461,53.2508367844539,53.2508367844539,1,1,1,1,1,1,1,1,-1,1,1,1,1,4,80,1
2,287,-1,../static/images/invador4.png,1,80,2,40,left,70,2,1206,0.943841255,0,0,1,9000,1054,8.53889943074004,17.0777988614801,13.5430328765751,27.0860657531502,52.9139342468498,52.9139342468498,1,1,1,1,1,1,1,1,1,1,1,1,1,4,80,1
2,288,-1,../static/images/invador4.png,1,80,2,40,right,74,2,1315,1.382045927,0,0,1,9080,1058,8.58223062381852,17.164461247637,13.7076642358352,27.4153284716704,52.5846715283296,52.5846715283296,1,1,1,1,1,1,1,1,1,1,1,1,1,4,80,1
2,289,-1,../static/images/invador3.png,2,20,2,10,left,74,1,834,-0.551682946,0,0,1,9160,1062,8.62523540489642,17.2504708097928,13.8685623082841,27.7371246165683,-7.73712461656826,7.73712461656826,0,-1,1,0,1,1,1,1,1,1,1,1,1,4,80,1
2,290,-1,../static/images/invador4.png,1,80,2,40,right,74,2,1193,0.891578313,0,0,1,9160,1064,8.60902255639098,17.218045112782,13.7513652341697,27.5027304683394,52.4972695316606,52.4972695316606,1,1,1,1,-1,1,1,1,1,1,0,-0,0,4,80,0
2,291,-1,../static/images/invador4.png,1,80,2,40,left,70,2,1056,0.340807303,0,0,1,9240,1068,8.65168539325843,17.3033707865169,13.9112723146141,27.8225446292283,52.1774553707717,52.1774553707717,1,1,1,1,1,1,-1,1,1,1,1,1,1,2,0,1
2,293,-1,../static/images/invador1.png,4,20,8,2.5,left,74,1,859,-0.451177287,0,0,1,9320,1074,8.67783985102421,69.4227188081937,13.9486745807528,111.589396646022,-91.5893966460221,91.5893966460221,0,-1,-1,-1,1,-1,1,1,1,1,0,0,-0,4,80,0
2,296,-1,../static/images/invador1.png,4,20,8,2.5,right,70,1,769,-0.812997658,0,0,1,9420,1084,8.690036900369,69.520295202952,13.7896202888731,110.316962310985,-90.316962310985,90.316962310985,0,-1,-1,-1,-1,1,1,1,-1,-1,1,-1,1,4,80,0
2,299,-1,../static/images/invador4.png,1,80,2,40,left,70,2,1211,0.963942387,0,0,1,9420,1090,8.64220183486239,17.2844036697248,13.4429762863773,26.8859525727547,53.1140474272453,53.1140474272453,1,1,1,1,1,1,1,-1,-1,-1,0,0,0,2,0,1
2,302,-1,../static/images/invador1.png,4,20,8,2.5,right,70,1,980,0.035270101,0,0,1,9660,1102,8.76588021778584,70.1270417422867,13.9324088157244,111.459270525795,-91.4592705257954,91.4592705257954,0,-1,-1,-1,1,1,1,1,1,1,1,1,1,4,80,1
2,303,-1,../static/images/invador4.png,1,80,2,40,left,70,2,1140,0.678506316,0,0,1,9660,1104,8.75,17.5,13.8146722030696,27.6293444061393,52.3706555938607,52.3706555938607,1,1,1,1,-1,-1,1,1,1,1,0,-0,-0,4,80,-1
2,304,-1,../static/images/invador3.png,2,20,2,10,right,70,1,673,-1.198939387,0,0,1,9740,1108,8.79061371841155,17.5812274368231,13.9731436938846,27.9462873877691,-7.94628738776912,7.94628738776912,0,-1,1,0,1,1,-1,-1,1,1,1,1,1,2,0,1
2,305,-1,../static/images/invador4.png,1,80,2,40,left,70,2,1195,0.899618765,0,0,1,9740,1110,8.77477477477477,17.5495495495495,13.8550628488264,27.7101256976528,52.2898743023472,52.2898743023472,1,1,1,1,-1,1,1,1,-1,-1,0,-0,0,4,80,0
2,306,-1,../static/images/invador2.png,3,80,8,10,left,74,1,1214,0.976003066,0,0,1,9820,1114,8.81508078994614,70.5206463195691,14.0126184153255,112.100947322604,-32.1009473226038,32.1009473226038,0,1,-1,0,1,1,-1,1,1,1,1,1,1,2,0,1
2,307,-1,../static/images/invador4.png,1,80,2,40,right,74,2,1248,1.112690762,0,0,1,9820,1116,8.79928315412186,17.5985663082437,13.8942039868899,27.7884079737798,52.2115920262202,52.2115920262202,1,1,1,1,1,-1,1,1,-1,1,0,0,-0,4,80,0
2,308,-1,../static/images/invador1.png,4,20,8,2.5,left,74,1,781,-0.764754942,0,0,1,9900,1120,8.83928571428571,70.7142857142857,14.0508719637149,112.406975709719,-92.4069757097194,92.4069757097194,0,-1,-1,-1,1,1,1,-1,1,1,1,1,1,2,0,1
2,309,-1,../static/images/invador2.png,3,80,8,10,right,70,1,1050,0.316685945,0,0,1,9900,1122,8.82352941176471,70.5882352941177,13.9321342714943,111.457074171954,-31.4570741719541,31.4570741719541,0,1,-1,0,-1,-1,1,1,1,-1,0,-0,-0,4,80,-1
2,310,-1,../static/images/invador4.png,1,80,2,40,right,74,2,1034,0.252362323,0,0,1,9900,1124,8.80782918149466,17.6156583629893,13.8143999788911,27.6287999577822,52.3712000422178,52.3712000422178,1,1,1,1,1,-1,-1,-1,1,1,0,0,-0,2,0,0
2,311,-1,../static/images/invador3.png,2,20,2,10,left,74,1,799,-0.692390868,0,0,1,9980,1128,8.84751773049645,17.6950354609929,13.972877642837,27.9457552856739,-7.9457552856739,7.9457552856739,0,-1,1,0,1,1,1,-1,-1,-1,1,1,1,2,0,1
2,313,-1,../static/images/invador4.png,1,80,2,40,left,70,2,1194,0.895598539,0,0,1,10060,1134,8.87125220458554,17.7425044091711,14.012360594719,28.0247211894379,51.9752788105621,51.9752788105621,1,1,1,1,1,1,-1,1,1,1,1,1,1,2,0,1
2,314,-1,../static/images/invador4.png,1,80,2,40,right,74,2,1236,1.064448045,0,0,1,10140,1138,8.9103690685413,17.8207381370826,14.1663491761503,28.3326983523006,51.6673016476994,51.6673016476994,1,1,1,1,1,1,1,1,-1,1,1,1,1,4,80,1
2,315,-1,../static/images/invador3.png,2,20,2,10,right,70,1,705,-1.070292144,0,0,1,10220,1142,8.9492119089317,17.8984238178634,14.31684581326,28.63369162652,-8.63369162652005,8.63369162652005,0,-1,1,0,1,1,1,1,1,1,1,1,1,4,80,1
2,317,-1,../static/images/invador4.png,1,80,2,40,left,70,2,1297,1.309681852,0,0,1,10220,1146,8.91797556719023,17.8359511343805,14.0758975678685,28.1517951357369,51.8482048642631,51.8482048642631,1,1,1,1,1,1,-1,1,1,1,0,0,0,2,0,1
3,0,-1,../static/images/invador3.png,4,20,8,2.5,left,70,2,1029,0.52253978,0,0,-1,0,2,0,0,7.73879195597502,61.9103356478001,-41.9103356478001,41.9103356478001,1,-1,-1,-1,NaN,NaN,NaN,NaN,NaN,NaN,NaN,NaN,NaN,0,0,NaN
3,2,-1,../static/images/invador4.png,2,20,2,10,right,74,2,1461,2.39375985,0,0,-1,20,14,1.42857142857143,2.85714285714286,7.64573997660857,15.2914799532171,4.70852004678287,4.70852004678287,1,-1,1,0,1,1,-1,-1,NaN,NaN,0,0,0,10,20,1
3,3,-1,../static/images/invador2.png,1,80,2,40,left,70,2,1354,1.930286361,0,0,-1,40,18,2.22222222222222,4.44444444444444,7.67639759975385,15.3527951995077,64.6472048004923,64.6472048004923,1,1,1,1,-1,1,1,1,-1,-1,1,-1,1,2,0,0
3,4,-1,../static/images/invador2.png,1,80,2,40,right,74,2,1059,0.652485618,0,0,-1,120,22,5.45454545454545,10.9090909090909,8.15205270159737,16.3041054031947,63.6958945968053,63.6958945968053,1,1,1,1,1,1,-1,1,1,1,1,1,1,4,20,1
3,5,-1,../static/images/invador2.png,1,80,2,40,right,74,2,900,-0.036227325,0,0,-1,200,26,7.69230769230769,15.3846153846154,8.62037724225831,17.2407544845166,62.7592455154834,62.7592455154834,1,1,1,1,1,1,1,1,-1,1,1,1,1,4,80,1
3,6,-1,../static/images/invador1.png,3,80,8,10,left,70,2,1025,0.505213668,0,0,-1,280,30,9.33333333333333,74.6666666666667,9.08148419672008,72.6518735737607,7.34812642623935,7.34812642623935,1,1,-1,0,1,1,1,1,1,1,1,1,1,4,80,1
3,8,-1,../static/images/invador2.png,1,80,2,40,left,70,2,832,-0.330771225,0,0,-1,360,42,8.57142857142857,17.1428571428571,9.39030853236129,18.7806170647226,61.2193829352774,61.2193829352774,1,1,1,1,1,1,1,-1,1,1,0,0,0,10,80,1
3,9,-1,../static/images/invador1.png,3,80,8,10,right,70,1,1213,1.319540921,0,0,-1,440,46,9.56521739130435,76.5217391304348,9.8395496865686,78.7163974925488,1.28360250745121,1.28360250745121,0,1,-1,0,1,1,1,1,1,-1,1,1,1,2,0,1
3,12,-1,../static/images/invador2.png,1,80,2,40,right,74,2,818,-0.391412616,0,0,-1,540,62,8.70967741935484,17.4193548387097,10.1264380573245,20.252876114649,59.747123885351,59.747123885351,1,1,1,1,1,1,-1,-1,1,-1,1,1,1,10,20,1
3,15,-1,../static/images/invador3.png,4,20,8,2.5,right,70,1,1166,1.115959108,0,0,-1,620,78,7.94871794871795,63.5897435897436,10.3122884925293,82.4983079402343,-62.4983079402343,62.4983079402343,0,-1,-1,-1,1,-1,-1,1,1,1,NaN,NaN,NaN,2,0,0
3,16,-1,../static/images/invador2.png,1,80,2,40,left,70,2,824,-0.365423448,0,0,-1,620,80,7.75,15.5,10.2708693994439,20.5417387988879,59.4582612011121,59.4582612011121,1,1,1,1,-1,-1,1,-1,-1,1,0,-0,-0,10,0,-1
3,17,-1,../static/images/invador2.png,1,80,2,40,right,74,2,1047,0.600507283,0,0,-1,700,84,8.33333333333333,16.6666666666667,10.706539785071,21.413079570142,58.586920429858,58.586920429858,1,1,1,1,1,1,-1,-1,1,-1,1,1,1,2,0,1
3,18,-1,../static/images/invador2.png,1,80,2,40,left,70,2,775,-0.577668317,0,0,-1,780,88,8.86363636363636,17.7272727272727,11.1354958341863,22.2709916683726,57.7290083316274,57.7290083316274,1,1,1,1,1,1,1,1,-1,-1,1,1,1,4,80,1
3,19,-1,../static/images/invador2.png,1,80,2,40,left,70,2,720,-0.815902354,0,0,-1,860,92,9.34782608695652,18.695652173913,11.5578410248235,23.1156820496471,56.8843179503529,56.8843179503529,1,1,1,1,1,1,1,1,1,1,1,1,1,4,80,1
3,20,-1,../static/images/invador4.png,2,20,2,10,right,70,1,1236,1.419166064,0,0,-1,940,96,9.79166666666667,19.5833333333333,11.9736772402639,23.9473544805279,-3.94735448052789,3.94735448052789,0,-1,1,0,1,1,1,1,1,1,1,1,1,4,80,1
3,21,-1,../static/images/invador2.png,1,80,2,40,left,70,2,945,0.158691433,0,0,-1,940,98,9.59183673469388,19.1836734693878,11.9255852136931,23.8511704273863,56.1488295726137,56.1488295726137,1,1,1,1,-1,1,1,1,1,1,0,-0,0,4,80,0
3,22,-1,../static/images/invador3.png,4,20,8,2.5,left,74,1,990,0.35361019,0,0,-1,1020,102,10,80,12.3357539375717,98.6860315005735,-78.6860315005735,78.6860315005735,0,-1,-1,-1,1,1,-1,1,1,1,1,1,1,2,0,1
3,23,-1,../static/images/invador4.png,2,20,2,10,left,74,1,223,-2.968671741,0,0,-1,1020,104,9.80769230769231,19.6153846153846,12.2862076374475,24.572415274895,-4.57241527489497,4.57241527489497,0,-1,1,0,-1,-1,1,1,-1,1,0,-0,-0,4,80,-1
3,24,-1,../static/images/invador2.png,1,80,2,40,right,74,2,777,-0.569005261,0,0,-1,1020,106,9.62264150943396,19.2452830188679,12.2368603390112,24.4737206780225,55.5262793219775,55.5262793219775,1,1,1,1,-1,1,-1,-1,1,1,0,-0,0,2,0,0
3,25,-1,../static/images/invador2.png,1,80,2,40,right,74,2,771,-0.594994429,0,0,-1,1100,110,10,20,12.6422318446072,25.2844636892144,54.7155363107856,54.7155363107856,1,1,1,1,1,1,-1,1,-1,-1,1,1,1,2,0,1
3,28,-1,../static/images/invador3.png,4,20,8,2.5,right,70,1,953,0.193343656,0,0,-1,1260,134,9.40298507462687,75.2238805970149,13.0156652908394,104.125322326715,-84.1253223267153,84.1253223267153,0,-1,-1,-1,1,1,1,-1,1,1,NaN,NaN,NaN,10,80,1
3,29,-1,../static/images/invador2.png,1,80,2,40,right,74,2,811,-0.421733311,0,0,-1,1260,136,9.26470588235294,18.5294117647059,12.9633881408509,25.9267762817017,54.0732237182983,54.0732237182983,1,1,1,1,-1,-1,1,1,1,-1,0,-0,-0,10,0,-1
3,30,-1,../static/images/invador4.png,2,20,2,10,left,74,1,896,-0.053553436,0,0,-1,1340,140,9.57142857142857,19.1428571428571,13.3575627592872,26.7151255185745,-6.71512551857445,6.71512551857445,0,-1,1,0,1,1,-1,-1,1,1,1,1,1,2,0,1
3,31,-1,../static/images/invador1.png,3,80,8,10,right,70,1,841,-0.291787473,0,0,-1,1340,142,9.43661971830986,75.4929577464789,13.3039123851999,106.431299081599,-26.4312990815994,26.4312990815994,0,1,-1,0,-1,1,1,1,-1,-1,0,-0,0,4,80,0
3,32,-1,../static/images/invador2.png,1,80,2,40,left,70,2,836,-0.313445113,0,0,-1,1340,144,9.30555555555556,18.6111111111111,13.2504774967286,26.5009549934573,53.4990450065427,53.4990450065427,1,1,1,1,1,-1,-1,1,1,1,0,0,-0,2,0,0
3,36,-1,../static/images/invador2.png,1,80,2,40,right,74,2,890,-0.079542604,0,0,-1,1500,156,9.61538461538461,19.2307692307692,13.9115433959955,27.823086791991,52.176913208009,52.176913208009,1,1,1,1,1,1,1,1,1,1,0,0,0,2,0,1
3,37,-1,../static/images/invador2.png,1,80,2,40,left,70,2,666,-1.049804863,0,0,-1,1580,160,9.875,19.75,14.2911055145732,28.5822110291465,51.4177889708535,51.4177889708535,1,1,1,1,1,1,1,1,1,1,1,1,1,2,0,1
3,38,-1,../static/images/invador2.png,1,80,2,40,left,70,2,600,-1.335685707,0,0,-1,1660,164,10.1219512195122,20.2439024390244,14.6648180095013,29.3296360190027,50.6703639809973,50.6703639809973,1,1,1,1,1,1,1,1,1,1,1,1,1,4,80,1
3,40,-1,../static/images/invador3.png,4,20,8,2.5,left,74,1,926,0.076392402,0,0,-1,1820,178,10.2247191011236,81.7977528089888,15.217423849456,121.739390795648,-101.739390795648,101.739390795648,0,-1,-1,-1,1,-1,1,1,1,1,1,1,-1,4,80,0
3,41,-1,../static/images/invador4.png,2,20,2,10,right,74,2,741,-0.724940267,0,0,-1,1820,180,10.1111111111111,20.2222222222222,15.1563033818317,30.3126067636635,-10.3126067636635,10.3126067636635,1,-1,1,0,-1,-1,1,-1,1,1,0,-0,-0,10,80,-1
3,42,-1,../static/images/invador2.png,1,80,2,40,right,74,2,934,0.111044625,0,0,-1,1840,184,10,20,15.071211916311,30.142423832622,49.857576167378,49.857576167378,1,1,1,1,-1,1,-1,-1,1,-1,1,-1,1,2,0,0
3,44,-1,../static/images/invador2.png,1,80,2,40,right,74,2,1249,1.475475927,0,0,-1,1940,198,9.7979797979798,19.5959595959596,15.1611900324667,30.3223800649333,49.6776199350667,49.6776199350667,1,1,1,1,-1,-1,1,1,-1,1,1,-1,-1,4,80,-1
3,45,-1,../static/images/invador2.png,1,80,2,40,right,74,2,757,-0.65563582,0,0,-1,2020,202,10,20,15.5214932151268,31.0429864302537,48.9570135697463,48.9570135697463,1,1,1,1,1,1,-1,-1,1,1,1,1,1,10,20,1
3,46,-1,../static/images/invador1.png,3,80,8,10,right,74,2,1467,2.419749018,0,0,-1,2100,206,10.1941747572816,81.5533980582524,15.8762435833327,127.009948666662,-47.0099486666618,47.0099486666618,1,1,-1,0,1,1,1,1,-1,-1,1,1,1,4,80,1
3,47,-1,../static/images/invador4.png,2,20,2,10,right,70,1,992,0.362273246,0,0,-1,2180,216,10.0925925925926,20.1851851851852,16.0379306195021,32.0758612390041,-12.0758612390041,12.0758612390041,0,-1,1,0,1,-1,1,1,1,1,1,1,-1,4,80,0
3,48,-1,../static/images/invador2.png,1,80,2,40,left,70,2,1368,1.990927752,0,0,-1,2180,218,10,20,15.9735146034348,31.9470292068695,48.0529707931305,48.0529707931305,1,1,1,1,-1,1,1,-1,1,1,0,-0,0,10,80,0
3,51,-1,../static/images/invador2.png,1,80,2,40,left,70,2,1273,1.579432598,0,0,-1,2260,226,10,20,16.1904536227648,32.3809072455297,47.6190927544703,47.6190927544703,1,1,1,1,1,1,1,1,1,1,0,0,0,2,0,1
3,52,-1,../static/images/invador2.png,1,80,2,40,right,74,2,1096,0.812752152,0,0,-1,2340,230,10.1739130434783,20.3478260869565,16.5348943040192,33.0697886080383,46.9302113919617,46.9302113919617,1,1,1,1,1,1,1,1,1,1,1,1,1,2,0,1
3,55,-1,../static/images/invador3.png,4,20,8,2.5,right,70,1,1008,0.431577693,0,0,-1,2420,246,9.83739837398374,78.6991869918699,16.4714429681866,131.771543745493,-111.771543745493,111.771543745493,0,-1,-1,-1,-1,1,1,-1,1,1,NaN,NaN,NaN,2,0,0
3,57,-1,../static/images/invador2.png,1,80,2,40,left,70,2,857,-0.222483026,0,0,-1,2420,250,9.68,19.36,16.3393942683786,32.6787885367573,47.3212114632427,47.3212114632427,1,1,1,1,-1,1,-1,-1,-1,1,0,-0,0,2,0,0
3,58,-1,../static/images/invador2.png,1,80,2,40,left,70,2,960,0.223664352,0,0,-1,2500,254,9.84251968503937,19.6850393700787,16.681539550065,33.3630791001301,46.6369208998699,46.6369208998699,1,1,1,1,1,1,-1,1,-1,-1,1,1,1,2,0,1
3,59,-1,../static/images/invador2.png,1,80,2,40,right,74,2,766,-0.616652069,0,0,-1,2580,258,10,20,17.0184118578865,34.036823715773,45.963176284227,45.963176284227,1,1,1,1,1,1,1,1,-1,1,1,1,1,4,80,1
3,60,-1,../static/images/invador1.png,3,80,8,10,right,70,1,865,-0.187830803,0,0,-1,2660,262,10.1526717557252,81.2213740458015,17.3500924563084,138.800739650467,-58.8007396504673,58.8007396504673,0,1,-1,0,1,1,1,1,1,1,1,1,1,4,80,1
3,61,-1,../static/images/invador3.png,4,20,8,2.5,left,74,1,895,-0.057884964,0,0,-1,2660,264,10.0757575757576,80.6060606060606,17.2804061694083,138.243249355266,-118.243249355266,118.243249355266,0,-1,-1,-1,1,-1,1,1,1,1,0,0,-0,4,80,0
3,64,-1,../static/images/invador2.png,1,80,2,40,right,74,2,1263,1.536117318,0,0,-1,2660,278,9.56834532374101,19.136690647482,16.8003765404888,33.6007530809776,46.3992469190224,46.3992469190224,1,1,1,1,-1,1,1,1,-1,-1,0,-0,0,10,0,0
3,66,-1,../static/images/invador3.png,4,20,8,2.5,right,70,1,938,0.128370737,0,0,-1,2740,284,9.64788732394366,77.1830985915493,17.0665933424383,136.532746739506,-116.532746739506,116.532746739506,0,-1,-1,-1,1,1,1,1,-1,1,0,0,0,4,80,1
3,67,-1,../static/images/invador2.png,1,80,2,40,left,70,2,907,-0.005906629,0,0,-1,2740,286,9.58041958041958,19.1608391608392,16.9980457238556,33.9960914477112,46.0039085522888,46.0039085522888,1,1,1,1,-1,-1,1,1,1,1,0,-0,-0,2,0,-1
3,68,-1,../static/images/invador1.png,3,80,8,10,left,74,1,1054,0.630827978,0,0,-1,2820,290,9.72413793103448,77.7931034482759,17.3300401950626,138.640321560501,-58.6403215605008,58.6403215605008,0,1,-1,0,1,1,-1,-1,1,1,1,1,1,2,0,1
3,69,-1,../static/images/invador2.png,1,80,2,40,left,70,2,837,-0.309113585,0,0,-1,2820,292,9.65753424657534,19.3150684931507,17.2604344476543,34.5208688953087,45.4791311046913,45.4791311046913,1,1,1,1,1,-1,1,1,-1,-1,0,0,-0,4,80,0
3,70,-1,../static/images/invador4.png,2,20,2,10,left,74,1,979,0.305963383,0,0,-1,2900,296,9.7972972972973,19.5945945945946,17.588385113621,35.176770227242,-15.176770227242,15.176770227242,0,-1,1,0,1,1,1,-1,1,1,1,1,1,2,0,1
3,72,-1,../static/images/invador1.png,3,80,8,10,right,70,1,1266,1.549111902,0,0,-1,2980,302,9.86754966887417,78.9403973509934,17.8417269026008,142.733815220806,-62.7338152208062,62.7338152208062,0,1,-1,0,1,1,-1,1,1,1,1,1,1,2,0,1
3,73,-1,../static/images/invador2.png,1,80,2,40,left,70,2,935,0.115376153,0,0,-1,2980,304,9.80263157894737,19.6052631578947,17.7700659761325,35.5401319522651,44.4598680477349,44.4598680477349,1,1,1,1,1,-1,1,1,-1,1,0,0,-0,4,80,0
3,74,-1,../static/images/invador2.png,1,80,2,40,right,74,2,728,-0.781250131,0,0,-1,3060,308,9.93506493506493,19.8701298701299,18.0901624530332,36.1803249060664,43.8196750939336,43.8196750939336,1,1,1,1,1,1,1,-1,1,1,1,1,1,2,0,1
3,75,-1,../static/images/invador3.png,4,20,8,2.5,left,70,2,1450,2.346113043,0,0,-1,3140,312,10.0641025641026,80.5128205128205,18.4053257613435,147.242606090748,-127.242606090748,127.242606090748,1,-1,-1,-1,1,1,1,1,1,-1,1,1,1,4,80,1
3,76,-1,../static/images/invador2.png,1,80,2,40,right,74,2,1238,1.42782912,0,0,-1,3160,322,9.81366459627329,19.6273291925466,18.0526818575465,36.1053637150929,43.8946362849071,43.8946362849071,1,1,1,1,-1,-1,1,1,1,1,1,-1,-1,4,80,-1
3,78,-1,../static/images/invador2.png,1,80,2,40,left,70,2,1053,0.62649645,0,0,-1,3240,336,9.64285714285714,19.2857142857143,18.0024921857524,36.0049843715049,43.9950156284951,43.9950156284951,1,1,1,1,1,1,1,1,-1,-1,NaN,NaN,NaN,4,80,1
3,80,-1,../static/images/invador4.png,2,20,2,10,left,74,1,1130,0.960024102,0,0,-1,3400,350,9.71428571428571,19.4285714285714,18.4141829476983,36.8283658953966,-16.8283658953966,16.8283658953966,0,-1,1,0,1,-1,1,1,1,1,1,1,-1,4,80,0
3,82,-1,../static/images/invador2.png,1,80,2,40,right,74,2,1297,1.683389268,0,0,-1,3420,362,9.4475138121547,18.8950276243094,17.989351461662,35.9787029233241,44.0212970766759,44.0212970766759,1,1,1,1,-1,-1,-1,1,1,-1,1,-1,-1,2,0,-1
3,83,-1,../static/images/invador2.png,1,80,2,40,left,70,2,985,0.33195255,0,0,-1,3500,366,9.56284153005464,19.1256830601093,18.3060684191128,36.6121368382256,43.3878631617744,43.3878631617744,1,1,1,1,1,1,-1,-1,-1,1,1,1,1,10,20,1
3,84,-1,../static/images/invador2.png,1,80,2,40,right,74,2,781,-0.55167915,0,0,-1,3580,370,9.67567567567568,19.3513513513514,18.6179042914555,37.235808582911,42.764191417089,42.764191417089,1,1,1,1,1,1,1,1,-1,-1,1,1,1,4,80,1
3,85,-1,../static/images/invador2.png,1,80,2,40,left,70,2,871,-0.161841635,0,0,-1,3660,374,9.78609625668449,19.572192513369,18.9249343035599,37.8498686071197,42.1501313928803,42.1501313928803,1,1,1,1,1,1,1,1,1,1,1,1,1,4,80,1
3,86,-1,../static/images/invador2.png,1,80,2,40,left,70,2,1065,0.678474786,0,0,-1,3740,378,9.89417989417989,19.7883597883598,19.227232520967,38.4544650419339,41.5455349580661,41.5455349580661,1,1,1,1,1,1,1,1,1,1,1,1,1,4,80,1
3,87,-1,../static/images/invador2.png,1,80,2,40,right,74,2,870,-0.166173163,0,0,-1,3820,382,10,20,19.5248718677565,39.0497437355129,40.9502562644871,40.9502562644871,1,1,1,1,1,1,1,1,1,1,1,1,1,4,80,1
3,88,-1,../static/images/invador4.png,2,20,2,10,left,70,2,876,-0.140183995,0,0,-1,3900,386,10.1036269430052,20.2072538860104,19.8179241441382,39.6358482882763,-19.6358482882763,19.6358482882763,1,-1,1,0,1,1,1,1,1,1,1,1,1,4,80,1
3,89,-1,../static/images/invador3.png,4,20,8,2.5,right,70,1,1084,0.760773817,0,0,-1,3920,390,10.0512820512821,80.4102564102564,19.6609900849489,157.287920679591,-137.287920679591,137.287920679591,0,-1,-1,-1,-1,1,1,1,1,1,1,-1,1,4,80,0
3,90,-1,../static/images/invador1.png,3,80,8,10,left,74,1,928,0.085055458,0,0,-1,3920,392,10,80,19.5820221255993,156.656177004795,-76.6561770047946,76.6561770047946,0,1,-1,0,-1,-1,-1,1,1,1,0,-0,-0,4,20,-1
3,92,-1,../static/images/invador2.png,1,80,2,40,left,70,2,1232,1.401839952,0,0,-1,3920,396,9.8989898989899,19.7979797979798,19.4250364524989,38.8500729049978,41.1499270950022,41.1499270950022,1,1,1,1,1,1,1,-1,-1,-1,0,0,0,2,0,1
3,93,-1,../static/images/invador2.png,1,80,2,40,right,74,2,955,0.202006712,0,0,-1,4000,400,10,20,19.7196273429245,39.439254685849,40.560745314151,40.560745314151,1,1,1,1,1,1,1,1,1,-1,1,1,1,2,0,1
3,94,-1,../static/images/invador3.png,4,20,8,2.5,left,74,1,881,-0.118526355,0,0,-1,4080,404,10.0990099009901,80.7920792079208,20.009678144244,160.077425153952,-140.077425153952,140.077425153952,0,-1,-1,-1,1,1,1,1,1,1,1,1,1,4,80,1
3,95,-1,../static/images/invador4.png,2,20,2,10,right,70,1,944,0.154359905,0,0,-1,4080,406,10.0492610837438,20.0985221674877,19.9293096865283,39.8586193730566,-19.8586193730566,19.8586193730566,0,-1,1,0,-1,-1,1,1,1,1,0,-0,-0,4,80,-1
3,96,-1,../static/images/invador2.png,1,80,2,40,left,70,2,1063,0.66981173,0,0,-1,4080,408,10,20,19.8492640270579,39.6985280541159,40.3014719458841,40.3014719458841,1,1,1,1,-1,1,-1,-1,1,1,0,-0,0,2,0,0
3,97,-1,../static/images/invador1.png,3,80,8,10,right,70,1,835,-0.317776641,0,0,-1,4160,412,10.0970873786408,80.7766990291262,20.1373169319167,161.098535455333,-81.0985354553332,81.0985354553332,0,1,-1,0,1,1,-1,1,-1,-1,1,1,1,2,0,1
3,98,-1,../static/images/invador2.png,1,80,2,40,left,70,2,949,0.176017545,0,0,-1,4160,414,10.048309178744,20.0966183574879,20.0564358156546,40.1128716313092,39.8871283686908,39.8871283686908,1,1,1,1,1,-1,1,1,-1,1,0,0,-0,4,80,0
3,99,-1,../static/images/invador1.png,3,80,8,10,left,74,1,687,-0.958842776,0,0,-1,4240,418,10.1435406698565,81.1483253588517,20.3412958913694,162.730367130955,-82.7303671309552,82.7303671309552,0,1,-1,0,1,1,1,-1,1,1,1,1,1,2,0,1
3,100,-1,../static/images/invador2.png,1,80,2,40,right,74,2,1032,0.535534364,0,0,-1,4240,420,10.0952380952381,20.1904761904762,20.2595954978426,40.5191909956852,39.4808090043148,39.4808090043148,1,1,1,1,1,-1,1,1,1,-1,0,0,-0,4,80,0
3,102,-1,../static/images/invador2.png,1,80,2,40,left,70,2,1191,1.224247306,0,0,-1,4340,434,10,20,20.1305224308919,40.2610448617839,39.7389551382161,39.7389551382161,1,1,1,1,-1,-1,1,1,1,-1,1,-1,-1,4,80,-1
3,104,-1,../static/images/invador2.png,1,80,2,40,left,70,2,750,-0.685956516,0,0,-1,4420,440,10.0454545454545,20.0909090909091,20.332247345413,40.664494690826,39.335505309174,39.335505309174,1,1,1,1,-1,1,1,1,-1,-1,0,-0,0,4,80,0
3,105,-1,../static/images/invador4.png,2,20,2,10,left,70,2,1212,1.315209393,0,0,-1,4500,444,10.1351351351351,20.2702702702703,20.6128567502406,41.2257135004812,-21.2257135004812,21.2257135004812,1,-1,1,0,1,1,-1,1,1,1,1,1,1,2,0,1
3,106,-1,../static/images/invador1.png,3,80,8,10,right,70,1,796,-0.486706231,0,0,-1,4520,448,10.0892857142857,80.7142857142857,20.4436715828797,163.549372663037,-83.5493726630373,83.5493726630373,0,1,-1,0,-1,1,1,1,-1,1,1,-1,1,4,80,0
3,107,-1,../static/images/invador2.png,1,80,2,40,left,70,2,940,0.137033793,0,0,-1,4520,450,10.0444444444444,20.0888888888889,20.3615599995089,40.7231199990178,39.2768800009822,39.2768800009822,1,1,1,1,1,-1,-1,1,1,1,0,0,-0,4,20,0
3,108,-1,../static/images/invador2.png,1,80,2,40,right,74,2,1309,1.735367603,0,0,-1,4600,454,10.1321585903084,20.2643171806167,20.6417176522089,41.2834353044178,38.7165646955822,38.7165646955822,1,1,1,1,1,1,1,-1,-1,1,1,1,1,2,0,1
3,109,-1,../static/images/invador3.png,4,20,8,2.5,left,74,1,1199,1.25889953,0,0,-1,4680,458,10.2183406113537,81.7467248908297,20.9175576537244,167.340461229795,-147.340461229795,147.340461229795,0,-1,-1,-1,1,1,1,1,1,-1,1,1,1,4,80,1
3,110,-1,../static/images/invador2.png,1,80,2,40,left,70,2,1202,1.271894114,0,0,-1,4680,460,10.1739130434783,20.3478260869565,20.8335427167678,41.6670854335356,38.3329145664644,38.3329145664644,1,1,1,1,-1,-1,1,1,1,1,0,-0,-0,4,80,-1
3,111,-1,../static/images/invador2.png,1,80,2,40,right,74,2,1454,2.363439155,0,0,-1,4760,464,10.2586206896552,20.5172413793103,21.1064264052601,42.2128528105203,37.7871471894797,37.7871471894797,1,1,1,1,1,1,-1,-1,1,1,1,1,1,2,0,1
3,112,-1,../static/images/invador2.png,1,80,2,40,right,74,2,1495,2.5410318,0,0,-1,4840,468,10.3418803418803,20.6837606837607,21.3751045453068,42.7502090906136,37.2497909093864,37.2497909093864,1,1,1,1,1,1,1,1,-1,-1,1,1,1,4,80,1
3,113,-1,../static/images/invador2.png,1,80,2,40,left,70,2,1482,2.484721937,0,0,-1,4920,472,10.4237288135593,20.8474576271186,21.6396419507405,43.2792839014811,36.7207160985189,36.7207160985189,1,1,1,1,1,1,1,1,1,1,1,1,1,4,80,1
3,114,-1,../static/images/invador2.png,1,80,2,40,right,74,2,1009,0.435909221,0,0,-1,5000,476,10.5042016806723,21.0084033613445,21.9001024365152,43.8002048730305,36.1997951269695,36.1997951269695,1,1,1,1,1,1,1,1,1,1,1,1,1,4,80,1
3,115,-1,../static/images/invador3.png,4,20,8,2.5,left,74,1,1125,0.938366462,0,0,-1,5080,480,10.5833333333333,84.6666666666667,22.1565488341004,177.252390672803,-157.252390672803,157.252390672803,0,-1,-1,-1,1,1,1,1,1,1,1,1,1,4,80,1
3,117,-1,../static/images/invador1.png,3,80,8,10,right,70,1,1102,0.83874132,0,0,-1,5080,484,10.495867768595,83.9669421487603,21.9789236271634,175.831389017307,-95.8313890173074,95.8313890173074,0,1,-1,0,1,1,-1,-1,1,1,0,0,0,2,0,1
3,118,-1,../static/images/invador4.png,2,20,2,10,left,70,2,1316,1.765688299,0,0,-1,5080,486,10.4526748971193,20.9053497942387,21.8906457357634,43.7812914715268,-23.7812914715268,23.7812914715268,1,-1,1,0,1,-1,1,1,-1,-1,0,0,-0,2,0,0
3,119,-1,../static/images/invador2.png,1,80,2,40,left,70,2,1387,2.073226783,0,0,-1,5100,490,10.4081632653061,20.8163265306122,21.7017679165198,43.4035358330396,36.5964641669604,36.5964641669604,1,1,1,1,-1,1,1,-1,1,1,1,-1,1,2,0,0
3,120,-1,../static/images/invador4.png,2,20,2,10,left,70,2,1040,0.570186587,0,0,-1,5180,494,10.4858299595142,20.9716599190283,21.9612709476358,43.9225418952717,-23.9225418952717,23.9225418952717,1,-1,1,0,1,1,-1,1,1,-1,1,1,1,4,20,1
3,121,-1,../static/images/invador2.png,1,80,2,40,left,70,2,1256,1.505796623,0,0,-1,5200,498,10.4417670682731,20.8835341365462,21.7713046875563,43.5426093751126,36.4573906248874,36.4573906248874,1,1,1,1,-1,1,1,1,-1,1,1,-1,1,4,80,0
3,125,-1,../static/images/invador2.png,1,80,2,40,right,74,2,1044,0.587512699,0,0,-1,5380,532,10.1127819548872,20.2255639097744,21.1548312621819,42.3096625243638,37.6903374756362,37.6903374756362,1,1,1,1,1,1,1,-1,-1,-1,NaN,NaN,NaN,10,80,1
3,126,-1,../static/images/invador1.png,3,80,8,10,left,74,1,1302,1.705046908,0,0,-1,5460,536,10.1865671641791,81.4925373134328,21.4227634105136,171.382107284108,-91.3821072841084,91.3821072841084,0,1,-1,0,1,1,1,1,1,-1,1,1,1,10,0,1
3,127,-1,../static/images/invador2.png,1,80,2,40,left,70,2,933,0.106713097,0,0,-1,5460,538,10.1486988847584,20.2973977695167,21.3367193251014,42.6734386502029,37.3265613497971,37.3265613497971,1,1,1,1,1,-1,1,1,1,1,0,0,-0,4,80,0
3,128,-1,../static/images/invador4.png,2,20,2,10,left,70,2,1118,0.908045767,0,0,-1,5540,542,10.2214022140221,20.4428044280443,21.6018483045646,43.2036966091292,-23.2036966091292,23.2036966091292,1,-1,1,0,1,1,1,-1,1,1,1,1,1,2,0,1
3,129,-1,../static/images/invador2.png,1,80,2,40,left,70,2,1281,1.614084821,0,0,-1,5560,546,10.1831501831502,20.3663003663004,21.4174212884987,42.8348425769974,37.1651574230026,37.1651574230026,1,1,1,1,-1,1,1,1,1,-1,1,-1,1,4,80,0
3,131,-1,../static/images/invador2.png,1,80,2,40,left,70,2,1093,0.799757568,0,0,-1,5660,560,10.1071428571429,20.2142857142857,21.23946534593,42.4789306918601,37.5210693081399,37.5210693081399,1,1,1,1,-1,-1,1,1,-1,1,1,-1,-1,4,80,-1
3,133,-1,../static/images/invador1.png,3,80,8,10,left,70,2,1123,0.929703406,0,0,-1,5740,566,10.1413427561837,81.13074204947,21.4197143780139,171.357715024111,-91.3577150241111,91.3577150241111,1,1,-1,0,1,1,1,1,-1,-1,0,0,0,4,80,1
3,134,-1,../static/images/invador3.png,4,20,8,2.5,left,74,1,962,0.232327408,0,0,-1,5820,576,10.1041666666667,80.8333333333333,21.4304656948236,171.443725558589,-151.443725558589,151.443725558589,0,-1,-1,-1,1,-1,1,1,1,1,1,1,-1,2,0,0
3,135,-1,../static/images/invador2.png,1,80,2,40,right,74,2,1185,1.198258139,0,0,-1,5820,578,10.0692041522491,20.1384083044983,21.3443906733461,42.6887813466923,37.3112186533077,37.3112186533077,1,1,1,1,-1,-1,1,-1,1,1,0,-0,-0,10,80,-1
3,137,-1,../static/images/invador4.png,2,20,2,10,left,70,2,1089,0.782431456,0,0,-1,5900,584,10.1027397260274,20.2054794520548,21.5226077126504,43.0452154253009,-23.0452154253009,23.0452154253009,1,-1,1,0,1,1,1,1,-1,-1,0,0,0,4,80,1
3,138,-1,../static/images/invador2.png,1,80,2,40,left,70,2,1078,0.734784649,0,0,-1,5920,588,10.0680272108844,20.1360544217687,21.3394019133967,42.6788038267935,37.3211961732065,37.3211961732065,1,1,1,1,-1,1,1,1,1,1,1,-1,1,2,0,0
3,140,-1,../static/images/invador2.png,1,80,2,40,left,70,2,982,0.318957967,0,0,-1,6000,594,10.1010101010101,20.2020202020202,21.5177155654488,43.0354311308977,36.9645688691023,36.9645688691023,1,1,1,1,1,1,1,1,-1,1,0,0,0,4,80,1
3,141,-1,../static/images/invador2.png,1,80,2,40,right,74,2,948,0.171686017,0,0,-1,6080,598,10.1672240802676,20.3344481605351,21.7800551203719,43.5601102407439,36.4398897592561,36.4398897592561,1,1,1,1,1,1,1,1,1,1,1,1,1,2,0,1
3,142,1,../static/images/invador3.png,4,20,8,2.5,left,74,1,1298,1.687720796,0,0,-1,6160,602,10.2325581395349,81.8604651162791,22.0383516278211,176.306813022569,-156.306813022569,156.306813022569,0,-1,-1,-1,1,1,1,1,1,1,1,1,1,4,80,1
3,143,1,../static/images/invador3.png,4,20,8,2.5,right,70,1,788,-0.521358454,0,0,-1,6160,604,10.1986754966887,81.5894039735099,21.9498350450876,175.598680360701,-155.598680360701,155.598680360701,0,-1,-1,-1,-1,-1,1,1,1,1,0,-0,-0,4,80,-1
3,144,1,../static/images/invador3.png,4,20,8,2.5,left,74,1,819,-0.387081088,0,0,-1,6160,606,10.1650165016502,81.3201320132013,21.8616739873749,174.893391898999,-154.893391898999,154.893391898999,0,-1,-1,-1,-1,-1,-1,-1,1,1,0,-0,-0,2,0,-1
3,146,1,../static/images/invador1.png,3,80,8,10,right,70,1,1003,0.409920053,0,0,-1,6180,612,10.0980392156863,80.7843137254902,21.5867889431882,172.694311545506,-92.6943115455058,92.6943115455058,0,1,-1,0,-1,1,-1,-1,-1,-1,1,-1,1,2,0,0
3,147,1,../static/images/invador2.png,1,80,2,40,right,74,2,843,-0.283124417,0,0,-1,6180,614,10.0651465798046,20.1302931596091,21.5000860526223,43.0001721052447,36.9998278947553,36.9998278947553,1,1,1,1,1,-1,-1,1,-1,-1,0,0,-0,4,20,0
3,148,1,../static/images/invador3.png,4,20,8,2.5,right,70,1,932,0.10238157,0,0,-1,6260,618,10.1294498381877,81.0355987055016,21.762697304878,174.101578439024,-154.101578439024,154.101578439024,0,-1,-1,-1,1,1,1,-1,-1,1,1,1,1,2,0,1
3,149,1,../static/images/invador1.png,3,80,8,10,right,70,1,1220,1.349861617,0,0,-1,6260,620,10.0967741935484,80.7741935483871,21.6752878820218,173.402303056174,-93.402303056174,93.402303056174,0,1,-1,0,-1,-1,1,1,1,-1,0,-0,-0,4,80,-1
3,150,1,../static/images/invador3.png,4,20,8,2.5,left,74,1,959,0.219332824,0,0,-1,6260,622,10.064308681672,80.5144694533762,21.5882295373015,172.705836298412,-152.705836298412,152.705836298412,0,-1,-1,-1,1,-1,-1,-1,1,1,0,0,-0,2,0,0
3,151,1,../static/images/invador3.png,4,20,8,2.5,right,70,1,833,-0.326439697,0,0,-1,6260,624,10.0320512820513,80.2564102564103,21.5015208606192,172.012166884954,-152.012166884954,152.012166884954,0,-1,-1,-1,-1,-1,1,-1,-1,-1,0,-0,-0,2,0,-1
3,153,1,../static/images/invador3.png,4,20,8,2.5,right,70,1,799,-0.473711647,0,0,-1,6260,628,9.96815286624204,79.7452229299363,21.3291468992716,170.633175194172,-150.633175194172,150.633175194172,0,-1,-1,-1,-1,1,-1,-1,-1,-1,0,-0,0,2,0,0
3,154,1,../static/images/invador3.png,4,20,8,2.5,left,74,1,891,-0.075211076,0,0,-1,6260,630,9.93650793650794,79.4920634920635,21.2434788226373,169.947830581099,-149.947830581099,149.947830581099,0,-1,-1,-1,-1,-1,-1,1,-1,-1,0,-0,-0,2,0,-1
3,155,1,../static/images/invador2.png,1,80,2,40,left,70,2,803,-0.456385535,0,0,-1,6260,632,9.90506329113924,19.8101265822785,21.1581548300581,42.3163096601162,37.6836903398838,37.6836903398838,1,1,1,1,-1,-1,-1,-1,-1,1,0,-0,-0,2,0,-1
3,156,1,../static/images/invador3.png,4,20,8,2.5,right,70,1,816,-0.400075672,0,0,-1,6340,636,9.9685534591195,79.748427672956,21.4260357572054,171.408286057643,-151.408286057643,151.408286057643,0,-1,-1,-1,1,1,-1,-1,-1,-1,1,1,1,2,0,1
3,157,1,../static/images/invador3.png,4,20,8,2.5,right,70,1,848,-0.261466778,0,0,-1,6340,638,9.93730407523511,79.4984326018809,21.3399785284806,170.719828227845,-150.719828227845,150.719828227845,0,-1,-1,-1,-1,-1,1,1,-1,-1,0,-0,-0,4,80,-1
3,158,1,../static/images/invador3.png,4,20,8,2.5,left,74,1,660,-1.075794031,0,0,-1,6340,640,9.90625,79.25,21.2542669468321,170.034135574656,-150.034135574656,150.034135574656,0,-1,-1,-1,-1,-1,-1,-1,1,1,0,-0,-0,2,0,-1
3,159,1,../static/images/invador1.png,3,80,8,10,left,74,1,837,-0.309113585,0,0,-1,6340,642,9.87538940809969,79.0031152647975,21.1688996239755,169.351196991804,-89.3511969918039,89.3511969918039,0,1,-1,0,-1,-1,-1,-1,-1,-1,0,-0,-0,2,0,-1
3,160,1,../static/images/invador4.png,2,20,2,10,left,70,2,729,-0.776918603,0,0,-1,6340,644,9.84472049689441,19.6894409937888,21.0838751772026,42.1677503544052,-22.1677503544052,22.1677503544052,1,-1,1,0,1,-1,-1,-1,-1,-1,0,0,-0,2,0,0
3,163,1,../static/images/invador3.png,4,20,8,2.5,right,70,1,1045,0.591844227,0,0,-1,6360,660,9.63636363636364,77.0909090909091,20.4086175294451,163.268940235561,-143.268940235561,143.268940235561,0,-1,-1,-1,-1,1,-1,-1,-1,1,NaN,NaN,NaN,2,0,0
3,164,1,../static/images/invador3.png,4,20,8,2.5,left,74,1,1005,0.418583109,0,0,-1,6360,662,9.60725075528701,76.8580060422961,20.3266467399537,162.61317391963,-142.61317391963,142.61317391963,0,-1,-1,-1,-1,-1,-1,1,-1,-1,0,-0,-0,10,0,-1
3,165,1,../static/images/invador2.png,1,80,2,40,left,70,2,1120,0.916708822,0,0,-1,6360,664,9.57831325301205,19.1566265060241,20.2450051844401,40.4900103688803,39.5099896311197,39.5099896311197,1,1,1,1,-1,-1,-1,-1,-1,1,0,-0,-0,2,0,-1
3,166,1,../static/images/invador1.png,3,80,8,10,left,74,1,990,0.35361019,0,0,-1,6440,668,9.64071856287425,77.125748502994,20.5269591223049,164.215672978439,-84.215672978439,84.215672978439,0,1,-1,0,1,1,-1,-1,-1,-1,1,1,1,2,0,1
3,167,1,../static/images/invador3.png,4,20,8,2.5,left,74,1,831,-0.335102753,0,0,-1,6440,670,9.61194029850746,76.8955223880597,20.4445130162575,163.55610413006,-143.55610413006,143.55610413006,0,-1,-1,-1,1,-1,1,1,-1,-1,0,0,-0,4,80,0
3,169,1,../static/images/invador3.png,4,20,8,2.5,right,70,1,1377,2.029911503,0,0,-1,6440,682,9.44281524926686,75.5425219941349,19.956744020083,159.653952160664,-139.653952160664,139.653952160664,0,-1,-1,-1,-1,1,-1,-1,1,-1,NaN,NaN,NaN,2,0,0
3,170,1,../static/images/invador1.png,3,80,8,10,right,70,1,899,-0.040558853,0,0,-1,6440,684,9.41520467836257,75.3216374269006,19.8765881711803,159.012705369442,-79.0127053694423,79.0127053694423,0,1,-1,0,-1,-1,-1,1,-1,-1,0,-0,-0,10,0,-1
3,171,1,../static/images/invador3.png,4,20,8,2.5,right,70,1,789,-0.517026926,0,0,-1,6440,686,9.38775510204082,75.1020408163265,19.7967542665841,158.374034132672,-138.374034132672,138.374034132672,0,-1,-1,-1,1,-1,-1,-1,-1,1,0,0,-0,2,0,0
3,172,1,../static/images/invador2.png,1,80,2,40,left,70,2,1082,0.752110761,0,0,-1,6440,688,9.36046511627907,18.7209302325581,19.7172410132117,39.4344820264234,40.5655179735766,40.5655179735766,1,1,1,1,-1,-1,1,-1,-1,-1,0,-0,-0,2,0,-1
3,174,1,../static/images/invador3.png,4,20,8,2.5,left,74,1,1147,1.033660077,0,0,-1,6520,702,9.28774928774929,74.3019943019943,19.6087481533685,156.869985226948,-136.869985226948,136.869985226948,0,-1,-1,-1,-1,-1,1,1,-1,-1,NaN,NaN,NaN,4,80,-1
3,175,1,../static/images/invador3.png,4,20,8,2.5,left,74,1,1000,0.39692547,0,0,-1,6520,704,9.26136363636364,74.0909090909091,19.5299900226548,156.239920181238,-136.239920181238,136.239920181238,0,-1,-1,-1,-1,-1,-1,-1,1,1,0,-0,-0,10,0,-1
3,176,1,../static/images/invador3.png,4,20,8,2.5,right,70,1,791,-0.50836387,0,0,-1,6520,706,9.23512747875354,73.8810198300283,19.4515482223415,155.612385778732,-135.612385778732,135.612385778732,0,-1,-1,-1,-1,-1,-1,-1,-1,-1,0,-0,-0,2,0,-1
3,177,1,../static/images/invador4.png,2,20,2,10,right,74,2,766,-0.616652069,0,0,-1,6520,708,9.2090395480226,18.4180790960452,19.373421481894,38.746842963788,-18.746842963788,18.746842963788,1,-1,1,0,-1,-1,-1,-1,-1,-1,0,-0,-0,2,0,-1
3,178,1,../static/images/invador3.png,4,20,8,2.5,left,74,1,967,0.253985047,0,0,-1,6540,712,9.18539325842697,73.4831460674157,19.2233378778954,153.786703023163,-133.786703023163,133.786703023163,0,-1,-1,-1,-1,1,-1,-1,-1,-1,1,-1,1,2,0,0
3,179,1,../static/images/invador2.png,1,80,2,40,right,74,2,963,0.236658936,0,0,-1,6540,714,9.15966386554622,18.3193277310924,19.1461277395684,38.2922554791369,41.7077445208631,41.7077445208631,1,1,1,1,-1,-1,-1,1,-1,-1,0,-0,-0,4,20,-1
3,180,1,../static/images/invador3.png,4,20,8,2.5,right,70,1,1325,1.80467205,0,0,-1,6620,718,9.22005571030641,73.7604456824512,19.4450170331365,155.560136265092,-135.560136265092,135.560136265092,0,-1,-1,-1,1,1,-1,-1,-1,1,1,1,1,2,0,1
3,181,1,../static/images/invador1.png,3,80,8,10,left,74,1,956,0.20633824,0,0,-1,6620,720,9.19444444444444,73.5555555555556,19.3669165250751,154.935332200601,-74.935332200601,74.935332200601,0,1,-1,0,-1,-1,1,1,-1,-1,0,-0,-0,4,80,-1
3,183,1,../static/images/invador3.png,4,20,8,2.5,right,70,1,1030,0.526871308,0,0,-1,6620,724,9.14364640883978,73.1491712707182,19.2116553162445,153.693242529956,-133.693242529956,133.693242529956,0,-1,-1,-1,1,-1,1,-1,-1,-1,0,0,-0,2,0,0
3,184,1,../static/images/invador4.png,2,20,2,10,left,70,2,1042,0.578849643,0,0,-1,6620,726,9.11845730027548,18.236914600551,19.1344921006844,38.2689842013688,-18.2689842013688,18.2689842013688,1,-1,1,0,-1,-1,1,-1,1,-1,0,-0,-0,2,0,-1
3,186,1,../static/images/invador3.png,4,20,8,2.5,right,70,1,1221,1.354193145,0,0,-1,6640,732,9.07103825136612,72.568306010929,18.9118254849963,151.294603879971,-131.294603879971,131.294603879971,0,-1,-1,-1,-1,-1,-1,1,-1,-1,0,-0,-0,4,20,-1
3,187,1,../static/images/invador2.png,1,80,2,40,right,74,2,887,-0.092537188,0,0,-1,6640,734,9.04632152588556,18.0926430517711,18.8358665297417,37.6717330594834,42.3282669405166,42.3282669405166,1,1,1,1,-1,-1,-1,-1,-1,1,0,-0,-0,2,0,-1
3,188,1,../static/images/invador3.png,4,20,8,2.5,left,74,1,870,-0.166173163,0,0,-1,6720,738,9.10569105691057,72.8455284552846,19.1395374156282,153.116299325026,-133.116299325026,133.116299325026,0,-1,-1,-1,1,1,-1,-1,-1,-1,1,1,1,2,0,1
3,189,1,../static/images/invador3.png,4,20,8,2.5,left,74,1,942,0.145696849,0,0,-1,6720,740,9.08108108108108,72.6486486486486,19.0626638601218,152.501310880974,-132.501310880974,132.501310880974,0,-1,-1,-1,-1,-1,1,1,-1,-1,0,-0,-0,4,80,-1
3,190,1,../static/images/invador3.png,4,20,8,2.5,right,70,1,853,-0.239809138,0,0,-1,6720,742,9.05660377358491,72.4528301886792,18.9860990656585,151.888792525268,-131.888792525268,131.888792525268,0,-1,-1,-1,-1,-1,-1,-1,1,1,0,-0,-0,2,0,-1
3,191,1,../static/images/invador3.png,4,20,8,2.5,left,74,1,645,-1.14076695,0,0,-1,6720,744,9.03225806451613,72.258064516129,18.9098417921059,151.278734336847,-131.278734336847,131.278734336847,0,-1,-1,-1,-1,-1,-1,-1,-1,-1,0,-0,-0,2,0,-1
3,192,1,../static/images/invador3.png,4,20,8,2.5,left,74,1,778,-0.564673733,0,0,-1,6720,746,9.00804289544236,72.0643431635389,18.8338908043126,150.671126434501,-130.671126434501,130.671126434501,0,-1,-1,-1,-1,-1,-1,-1,-1,-1,0,-0,-0,2,0,-1
3,193,1,../static/images/invador1.png,3,80,8,10,right,70,1,904,-0.018901213,0,0,-1,6720,748,8.98395721925134,71.8716577540107,18.7582448720883,150.065958976707,-70.0659589767066,70.0659589767066,0,1,-1,0,-1,-1,-1,-1,-1,-1,0,-0,-0,2,0,-1
3,194,1,../static/images/invador2.png,1,80,2,40,right,74,2,1026,0.509545196,0,0,-1,6720,750,8.96,17.92,18.6829027701836,37.3658055403672,42.6341944596328,42.6341944596328,1,1,1,1,1,-1,-1,-1,-1,-1,0,0,-0,2,0,0
3,195,1,../static/images/invador4.png,2,20,2,10,left,70,2,1190,1.219915778,0,0,-1,6800,754,9.0185676392573,18.0371352785146,18.9889310578804,37.9778621157608,-17.9778621157608,17.9778621157608,1,-1,1,0,1,1,1,-1,-1,-1,1,1,1,2,0,1
3,196,1,../static/images/invador3.png,4,20,8,2.5,right,70,1,1088,0.778099928,0,0,-1,6820,758,8.99736147757256,71.9788918205805,18.8447730301374,150.758184241099,-130.758184241099,130.758184241099,0,-1,-1,-1,-1,1,1,1,1,-1,1,-1,1,4,80,0
3,197,1,../static/images/invador1.png,3,80,8,10,right,70,1,714,-0.841891522,0,0,-1,6820,760,8.97368421052632,71.7894736842105,18.7690833896786,150.152667117429,-70.1526671174286,70.1526671174286,0,1,-1,0,-1,-1,-1,1,1,1,0,-0,-0,4,20,-1
3,200,1,../static/images/invador3.png,4,20,8,2.5,right,70,1,1078,0.734784649,0,0,-1,6820,774,8.81136950904393,70.4909560723514,18.2477000352378,145.981600281902,-125.981600281902,125.981600281902,0,-1,-1,-1,-1,1,-1,-1,1,-1,NaN,NaN,NaN,2,0,0
3,201,1,../static/images/invador2.png,1,80,2,40,left,70,2,958,0.215001296,0,0,-1,6820,776,8.78865979381443,17.5773195876289,18.174408526093,36.3488170521861,43.6511829478139,43.6511829478139,1,1,1,1,-1,-1,-1,1,-1,-1,0,-0,-0,10,0,-1
3,202,1,../static/images/invador3.png,4,20,8,2.5,right,70,1,822,-0.374086504,0,0,-1,6900,780,8.84615384615385,70.7692307692308,18.4882734755913,147.906187804731,-127.906187804731,127.906187804731,0,-1,-1,-1,1,1,-1,-1,-1,1,1,1,1,2,0,1
3,203,1,../static/images/invador2.png,1,80,2,40,left,70,2,1032,0.535534364,0,0,-1,6900,782,8.82352941176471,17.6470588235294,18.4140157082075,36.8280314164151,43.1719685835849,43.1719685835849,1,1,1,1,-1,-1,1,1,-1,-1,0,-0,-0,4,80,-1
3,204,1,../static/images/invador4.png,2,20,2,10,left,70,2,1190,1.219915778,0,0,-1,6980,786,8.88040712468193,17.7608142493639,18.7241879503187,37.4483759006375,-17.4483759006375,17.4483759006375,1,-1,1,0,1,1,-1,-1,1,1,1,1,1,2,0,1
3,205,1,../static/images/invador3.png,4,20,8,2.5,right,70,1,767,-0.612320541,0,0,-1,7000,790,8.86075949367089,70.8860759493671,18.5841100124142,148.672880099314,-128.672880099314,128.672880099314,0,-1,-1,-1,-1,1,1,1,-1,-1,1,-1,1,4,80,0
3,206,1,../static/images/invador3.png,4,20,8,2.5,right,70,1,768,-0.607989013,0,0,-1,7000,792,8.83838383838384,70.7070707070707,18.5094673195658,148.075738556526,-128.075738556526,128.075738556526,0,-1,-1,-1,-1,-1,-1,1,1,1,0,-0,-0,4,20,-1
3,207,1,../static/images/invador1.png,3,80,8,10,left,74,1,1070,0.700132425,0,0,-1,7000,794,8.81612090680101,70.5289672544081,18.4351244275467,147.480995420374,-67.4809954203738,67.4809954203738,0,1,-1,0,-1,-1,-1,-1,-1,1,0,-0,-0,2,0,-1
3,208,1,../static/images/invador3.png,4,20,8,2.5,left,74,1,801,-0.465048591,0,0,-1,7000,796,8.79396984924623,70.3517587939699,18.3610801322133,146.888641057706,-126.888641057706,126.888641057706,0,-1,-1,-1,1,-1,-1,-1,-1,-1,0,0,-0,2,0,0
3,210,1,../static/images/invador2.png,1,80,2,40,right,74,2,889,-0.083874132,0,0,-1,7000,800,8.75,17.5,18.2138825391905,36.4277650783811,43.5722349216189,43.5722349216189,1,1,1,1,-1,-1,-1,-1,1,-1,0,-0,-0,2,0,-1
3,212,1,../static/images/invador3.png,4,20,8,2.5,right,70,1,953,0.193343656,0,0,-1,7080,806,8.78411910669975,70.272952853598,18.4527252642233,147.621802113787,-127.621802113787,127.621802113787,0,-1,-1,-1,-1,1,1,1,-1,-1,0,-0,0,4,80,0
3,213,1,../static/images/invador3.png,4,20,8,2.5,left,74,1,774,-0.581999845,0,0,-1,7080,808,8.76237623762376,70.0990099009901,18.378610275494,147.028882203952,-127.028882203952,127.028882203952,0,-1,-1,-1,-1,-1,-1,1,1,1,0,-0,-0,2,0,-1
3,214,1,../static/images/invador3.png,4,20,8,2.5,right,70,1,631,-1.201408341,0,0,-1,7080,810,8.74074074074074,69.9259259259259,18.3047929680814,146.438343744651,-126.438343744651,126.438343744651,0,-1,-1,-1,-1,-1,-1,-1,-1,1,0,-0,-0,2,0,-1
3,215,1,../static/images/invador3.png,4,20,8,2.5,right,70,1,738,-0.737934851,0,0,-1,7080,812,8.7192118226601,69.7536945812808,18.2312721463548,145.850177170838,-125.850177170838,125.850177170838,0,-1,-1,-1,-1,-1,-1,-1,-1,-1,0,-0,-0,2,0,-1
3,216,1,../static/images/invador1.png,3,80,8,10,left,74,1,845,-0.274461361,0,0,-1,7080,814,8.6977886977887,69.5823095823096,18.1580466194854,145.264372955883,-65.2643729558834,65.2643729558834,0,1,-1,0,-1,-1,-1,-1,-1,-1,0,-0,-0,2,0,-1
3,219,1,../static/images/invador1.png,3,80,8,10,right,70,1,1077,0.730453121,0,0,-1,7100,828,8.57487922705314,68.5990338164251,17.6705291661572,141.364233329257,-61.3642333292575,61.3642333292575,0,1,-1,0,-1,-1,1,1,1,-1,1,-1,-1,2,0,-1
3,220,1,../static/images/invador4.png,2,20,2,10,right,74,2,892,-0.070879548,0,0,-1,7100,830,8.55421686746988,17.1084337349398,17.5995558518506,35.1991117037012,-15.1991117037012,15.1991117037012,1,-1,1,0,1,-1,-1,-1,1,1,0,0,-0,10,20,0
3,222,1,../static/images/invador3.png,4,20,8,2.5,right,70,1,966,0.24965352,0,0,-1,7120,836,8.51674641148325,68.133971291866,17.4066149415903,139.252919532722,-119.252919532722,119.252919532722,0,-1,-1,-1,-1,-1,-1,1,1,-1,0,-0,-0,4,20,-1
3,223,1,../static/images/invador3.png,4,20,8,2.5,right,70,1,642,-1.153761533,0,0,-1,7120,838,8.4964200477327,67.9713603818616,17.336701633299,138.693613066392,-118.693613066392,118.693613066392,0,-1,-1,-1,-1,-1,-1,-1,-1,1,0,-0,-0,2,0,-1
3,225,1,../static/images/invador1.png,3,80,8,10,right,70,1,963,0.236658936,0,0,-1,7120,842,8.45605700712589,67.6484560570071,17.1977163049306,137.581730439445,-57.5817304394446,57.5817304394446,0,1,-1,0,-1,-1,-1,-1,-1,-1,0,-0,-0,2,0,-1
3,226,1,../static/images/invador2.png,1,80,2,40,left,70,2,1062,0.665480202,0,0,-1,7120,844,8.43601895734597,16.8720379146919,17.1286420336856,34.2572840673712,45.7427159326288,45.7427159326288,1,1,1,1,1,-1,-1,-1,-1,-1,0,0,-0,2,0,0
3,227,1,../static/images/invador3.png,4,20,8,2.5,right,70,1,775,-0.577668317,0,0,-1,7200,848,8.49056603773585,67.9245283018868,17.4586238191551,139.668990553241,-119.668990553241,119.668990553241,0,-1,-1,-1,1,1,1,-1,-1,-1,1,1,1,2,0,1
3,228,1,../static/images/invador4.png,2,20,2,10,right,74,2,1027,0.513876724,0,0,-1,7200,850,8.47058823529412,16.9411764705882,17.3885016182846,34.7770032365693,-14.7770032365693,14.7770032365693,1,-1,1,0,-1,-1,1,1,1,-1,0,-0,-0,4,80,-1
3,230,1,../static/images/invador3.png,4,20,8,2.5,right,70,1,897,-0.049221908,0,0,-1,7240,864,8.37962962962963,67.037037037037,16.9473039667549,135.578431734039,-115.578431734039,115.578431734039,0,-1,-1,-1,-1,-1,-1,1,-1,-1,1,-1,-1,4,20,-1
3,233,1,../static/images/invador2.png,1,80,2,40,left,70,2,1157,1.076975356,0,0,-1,7340,880,8.34090909090909,16.6818181818182,16.8998979801392,33.7997959602783,46.2002040397217,46.2002040397217,1,1,1,1,-1,1,1,-1,-1,-1,1,-1,1,10,80,0
3,235,1,../static/images/invador3.png,4,20,8,2.5,left,70,2,1126,0.94269799,0,0,-1,7440,894,8.32214765100671,66.5771812080537,16.9126698066062,135.301358452849,-115.301358452849,115.301358452849,1,-1,-1,-1,-1,-1,1,1,-1,1,1,-1,-1,4,80,-1
3,236,1,../static/images/invador3.png,4,20,8,2.5,left,74,1,919,0.046071706,0,0,-1,7460,904,8.25221238938053,66.0176991150443,16.6006674266178,132.805339412942,-112.805339412942,112.805339412942,0,-1,-1,-1,-1,-1,-1,-1,1,1,1,-1,-1,10,20,-1
3,237,1,../static/images/invador3.png,4,20,8,2.5,right,70,1,670,-1.032478751,0,0,-1,7460,906,8.23399558498896,65.8719646799117,16.5339911898232,132.271929518586,-112.271929518586,112.271929518586,0,-1,-1,-1,-1,-1,-1,-1,-1,-1,0,-0,-0,10,20,-1
3,238,1,../static/images/invador4.png,2,20,2,10,right,74,2,700,-0.902532913,0,0,-1,7460,908,8.215859030837,16.431718061674,16.4675827567523,32.9351655135046,-12.9351655135046,12.9351655135046,1,-1,1,0,-1,-1,-1,-1,-1,-1,0,-0,-0,2,0,-1
3,239,1,../static/images/invador3.png,4,20,8,2.5,left,74,1,755,-0.664298876,0,0,-1,7480,912,8.20175438596491,65.6140350877193,16.362282502031,130.898260016248,-110.898260016248,110.898260016248,0,-1,-1,-1,-1,1,-1,-1,-1,-1,1,-1,1,2,0,0
3,241,1,../static/images/invador2.png,1,80,2,40,right,74,2,1030,0.526871308,0,0,-1,7480,916,8.16593886462882,16.3318777292576,16.2311089227365,32.4622178454729,47.5377821545271,47.5377821545271,1,1,1,1,1,-1,-1,-1,-1,1,0,0,-0,2,0,0
3,242,1,../static/images/invador3.png,4,20,8,2.5,left,74,1,865,-0.187830803,0,0,-1,7560,920,8.21739130434783,65.7391304347826,16.5749230446147,132.599384356918,-112.599384356918,112.599384356918,0,-1,-1,-1,1,1,1,-1,-1,-1,1,1,1,2,0,1
3,243,1,../static/images/invador3.png,4,20,8,2.5,right,70,1,679,-0.993495,0,0,-1,7560,922,8.19956616052061,65.5965292841649,16.5083502095971,132.066801676776,-112.066801676776,112.066801676776,0,-1,-1,-1,-1,-1,1,1,1,-1,0,-0,-0,4,80,-1
3,244,1,../static/images/invador3.png,4,20,8,2.5,left,74,1,686,-0.963174304,0,0,-1,7560,924,8.18181818181818,65.4545454545455,16.442044762992,131.536358103936,-111.536358103936,111.536358103936,0,-1,-1,-1,-1,-1,-1,-1,1,1,0,-0,-0,2,0,-1
3,247,1,../static/images/invador4.png,2,20,2,10,left,70,2,1057,0.643822562,0,0,-1,7660,946,8.09725158562368,16.1945031712474,16.2226631826329,32.4453263652657,-12.4453263652657,12.4453263652657,1,-1,1,0,-1,-1,1,-1,-1,-1,1,-1,-1,10,80,-1
3,248,1,../static/images/invador3.png,4,20,8,2.5,right,70,1,937,0.124039209,0,0,-1,7680,950,8.08421052631579,64.6736842105263,16.1211375072568,128.969100058055,-108.969100058055,108.969100058055,0,-1,-1,-1,-1,1,-1,-1,1,-1,1,-1,1,10,20,0
3,249,1,../static/images/invador3.png,4,20,8,2.5,right,70,1,794,-0.495369286,0,0,-1,7680,952,8.0672268907563,64.5378151260504,16.0563872924487,128.45109833959,-108.45109833959,108.45109833959,0,-1,-1,-1,-1,-1,-1,1,-1,-1,0,-0,-0,4,20,-1
3,250,1,../static/images/invador2.png,1,80,2,40,left,70,2,901,-0.031895797,0,0,-1,7680,954,8.05031446540881,16.1006289308176,15.9918971455369,31.9837942910737,48.0162057089263,48.0162057089263,1,1,1,1,-1,-1,-1,-1,-1,1,0,-0,-0,2,0,-1
3,251,1,../static/images/invador3.png,4,20,8,2.5,right,70,1,877,-0.135852467,0,0,-1,7760,958,8.10020876826722,64.8016701461378,16.3393978810172,130.715183048138,-110.715183048138,110.715183048138,0,-1,-1,-1,1,1,-1,-1,-1,-1,1,1,1,2,0,1
3,252,1,../static/images/invador3.png,4,20,8,2.5,left,74,1,701,-0.898201385,0,0,-1,7760,960,8.08333333333333,64.6666666666667,16.2737710279397,130.190168223517,-110.190168223517,110.190168223517,0,-1,-1,-1,-1,-1,1,1,-1,-1,0,-0,-0,4,80,-1
3,253,1,../static/images/invador3.png,4,20,8,2.5,right,70,1,687,-0.958842776,0,0,-1,7760,962,8.06652806652807,64.5322245322245,16.2084077637579,129.667262110063,-109.667262110063,109.667262110063,0,-1,-1,-1,-1,-1,-1,-1,1,1,0,-0,-0,2,0,-1
3,254,1,../static/images/invador4.png,2,20,2,10,right,74,2,1175,1.154942859,0,0,-1,7760,964,8.04979253112033,16.0995850622407,16.1433070297725,32.286614059545,-12.286614059545,12.286614059545,1,-1,1,0,-1,-1,-1,-1,-1,-1,0,-0,-0,2,0,-1
3,255,1,../static/images/invador1.png,3,80,8,10,right,70,1,1105,0.851735903,0,0,-1,7780,968,8.03719008264463,64.297520661157,16.0430043521768,128.344034817415,-48.3440348174147,48.3440348174147,0,1,-1,0,-1,1,-1,-1,-1,-1,1,-1,1,2,0,0
3,256,1,../static/images/invador2.png,1,80,2,40,left,70,2,869,-0.170504691,0,0,-1,7780,970,8.02061855670103,16.0412371134021,15.9785679575673,31.9571359151347,48.0428640848653,48.0428640848653,1,1,1,1,1,-1,-1,1,-1,-1,0,0,-0,4,20,0
3,257,1,../static/images/invador3.png,4,20,8,2.5,left,74,1,862,-0.200825386,0,0,-1,7860,974,8.06981519507187,64.5585215605749,16.3262741159004,130.610192927203,-110.610192927203,110.610192927203,0,-1,-1,-1,1,1,1,-1,-1,1,1,1,1,2,0,1
3,258,1,../static/images/invador3.png,4,20,8,2.5,left,74,1,855,-0.231146082,0,0,-1,7860,976,8.05327868852459,64.4262295081967,16.2606999741535,130.085599793228,-110.085599793228,110.085599793228,0,-1,-1,-1,-1,-1,1,1,1,-1,0,-0,-0,4,80,-1
3,259,1,../static/images/invador3.png,4,20,8,2.5,right,70,1,850,-0.252803722,0,0,-1,7860,978,8.03680981595092,64.2944785276074,16.1953892095885,129.563113676708,-109.563113676708,109.563113676708,0,-1,-1,-1,-1,-1,-1,-1,1,1,0,-0,-0,2,0,-1
3,260,1,../static/images/invador2.png,1,80,2,40,left,70,2,1106,0.856067431,0,0,-1,7860,980,8.02040816326531,16.0408163265306,16.1303407643562,32.2606815287125,47.7393184712875,47.7393184712875,1,1,1,1,-1,-1,-1,-1,-1,-1,0,-0,-0,2,0,-1
3,262,1,../static/images/invador3.png,4,20,8,2.5,right,70,1,870,-0.166173163,0,0,-1,7960,994,8.00804828973843,64.0643863179074,16.1756029446948,129.404823557558,-109.404823557558,109.404823557558,0,-1,-1,-1,-1,-1,1,1,-1,-1,1,-1,-1,4,80,-1
3,264,1,../static/images/invador4.png,2,20,2,10,right,74,2,1165,1.11162758,0,0,-1,7960,998,7.97595190380762,15.9519038076152,16.0459259430148,32.0918518860297,-12.0918518860297,12.0918518860297,1,-1,1,0,1,-1,-1,-1,-1,-1,0,0,-0,2,0,0
3,265,1,../static/images/invador3.png,4,20,8,2.5,left,74,1,819,-0.387081088,0,0,-1,7980,1002,7.96407185628743,63.7125748502994,15.947124054566,127.576992436528,-107.576992436528,107.576992436528,0,-1,-1,-1,-1,1,1,-1,-1,-1,1,-1,1,2,0,0
3,266,1,../static/images/invador3.png,4,20,8,2.5,left,74,1,656,-1.093120142,0,0,-1,7980,1004,7.94820717131474,63.5856573705179,15.8830727611855,127.064582089484,-107.064582089484,107.064582089484,0,-1,-1,-1,-1,-1,-1,1,1,-1,0,-0,-0,4,20,-1
3,270,1,../static/images/invador4.png,2,20,2,10,right,74,2,1139,0.999007853,0,0,-1,8020,1028,7.80155642023346,15.6031128404669,15.2017943297262,30.4035886594524,-10.4035886594524,10.4035886594524,1,-1,1,0,-1,-1,1,1,-1,-1,1,-1,-1,2,0,-1
3,272,1,../static/images/invador3.png,4,20,8,2.5,right,70,1,922,0.05906629,0,0,-1,8120,1042,7.79270633397313,62.341650671785,15.2983884191588,122.387107353271,-102.387107353271,102.387107353271,0,-1,-1,-1,1,-1,-1,1,-1,-1,1,1,-1,4,20,0
3,273,1,../static/images/invador4.png,2,20,2,10,left,70,2,996,0.379599358,0,0,-1,8120,1044,7.77777777777778,15.5555555555556,15.2369427590177,30.4738855180354,-10.4738855180354,10.4738855180354,1,-1,1,0,-1,-1,1,-1,-1,1,0,-0,-0,10,80,-1
