subj,trial_index_actual,block,stimulus,stim_rank,reward_percent,delay_s,profitability,stim_left_right,key_press,approach_avoid,rt,rt_z,force_trial,missed,order_condition,reward_sum,delay_sum,Q_arithmetic,opp_cost_arithmetic,Q_estimate,opp_cost_estimate
2,0,1,../static/images/invador1.png,4,20,8,2.5,right,74,2,1253.0,1.132791893,0,0,2,0.0,2.0,0.0,0.0,7.704339173331228,61.63471338664982
2,1,1,../static/images/invador1.png,4,20,8,2.5,right,-1,0,NaN,NaN,0,1,2,20.0,12.0,1.6666666666666667,13.333333333333334,7.45828594553864,59.66628756430912
2,2,1,../static/images/invador3.png,2,20,2,10.0,right,74,2,1185.0,0.859416502,0,0,2,20.0,22.0,0.9090909090909091,1.8181818181818181,7.148433884695817,14.296867769391634
2,3,1,../static/images/invador4.png,1,80,2,40.0,left,70,2,1148.0,0.710668127,0,0,2,40.0,26.0,1.5384615384615385,3.076923076923077,7.104266865990754,14.208533731981507
2,4,1,../static/images/invador1.png,4,20,8,2.5,right,70,1,1156.0,0.742829938,2,0,2,120.0,30.0,4.0,32.0,7.414907833234554,59.31926266587643
2,5,1,../static/images/invador1.png,4,20,8,2.5,left,70,0,NaN,NaN,0,1,2,120.0,32.0,3.75,30.0,7.352247733105476,58.81798186484381
2,6,1,../static/images/invador2.png,3,80,8,10.0,right,74,2,1351.0,1.526774075,0,0,2,120.0,42.0,2.857142857142857,22.857142857142858,7.046800995267217,56.37440796213774
2,7,1,../static/images/invador1.png,4,20,8,2.5,left,74,1,1103.0,0.529757941,2,0,2,200.0,52.0,3.8461538461538463,30.76923076923077,7.185619345802518,57.484954766420145
2,8,1,../static/images/invador2.png,3,80,8,10.0,left,70,2,1306.0,1.34586389,2,0,2,200.0,54.0,3.7037037037037037,29.62962962962963,7.124896861069891,56.999174888559125
2,9,1,../static/images/invador3.png,2,20,2,10.0,left,74,1,1428.0,1.836331504,0,0,2,280.0,64.0,4.375,8.75,7.260025600818618,14.520051201637235
2,10,1,../static/images/invador1.png,4,20,8,2.5,left,74,1,1084.0,0.453373641,0,0,2,280.0,66.0,4.242424242424242,33.93939393939394,7.198674341798514,57.589394734388115
2,11,1,../static/images/invador1.png,4,20,8,2.5,left,74,1,1160.0,0.758910843,2,0,2,280.0,68.0,4.117647058823529,32.94117647058823,7.13784153508014,57.10273228064112
2,12,1,../static/images/invador4.png,1,80,2,40.0,left,70,2,1391.0,1.687583129,0,0,2,280.0,70.0,4.0,8.0,7.077522799452848,14.155045598905696
2,13,1,../static/images/invador1.png,4,20,8,2.5,left,70,2,1322.0,1.410187511,1,0,2,360.0,74.0,4.864864864864865,38.91891891891892,7.388770232386606,59.11016185909285
2,14,1,../static/images/invador4.png,1,80,2,40.0,left,74,1,1024.0,0.21216006,2,0,2,380.0,84.0,4.523809523809524,9.047619047619047,7.1576259444777035,14.315251888955407
2,15,1,../static/images/invador2.png,3,80,8,10.0,left,70,2,1337.0,1.470490906,0,0,2,380.0,86.0,4.4186046511627906,35.348837209302324,7.097140019574195,56.77712015659356
2,16,1,../static/images/invador1.png,4,20,8,2.5,left,74,1,1118.0,0.590061337,0,0,2,460.0,96.0,4.791666666666667,38.333333333333336,7.233580121207846,57.86864096966277
2,17,1,../static/images/invador1.png,4,20,8,2.5,left,74,1,933.0,-0.153680537,2,0,2,460.0,98.0,4.6938775510204085,37.55102040816327,7.17245234121643,57.37961872973144
2,18,1,../static/images/invador1.png,4,20,8,2.5,left,74,1,1043.0,0.288544361,0,0,2,460.0,100.0,4.6,36.8,7.111841125004507,56.89472900003606
2,19,1,../static/images/invador3.png,2,20,2,10.0,left,74,1,1159.0,0.754890617,0,0,2,460.0,102.0,4.509803921568627,9.019607843137255,7.0517421073204964,14.103484214640993
2,20,1,../static/images/invador1.png,4,20,8,2.5,left,74,1,1033.0,0.248342097,0,0,2,460.0,104.0,4.423076923076923,35.38461538461539,6.992150959801623,55.93720767841298
2,21,1,../static/images/invador1.png,4,20,8,2.5,left,74,1,977.0,0.023209422,1,0,2,460.0,106.0,4.339622641509434,34.716981132075475,6.933063390662186,55.46450712529749
2,22,1,../static/images/invador1.png,4,20,8,2.5,left,70,0,NaN,NaN,0,1,2,460.0,108.0,4.2592592592592595,34.074074074074076,6.8744751443844665,54.99580115507573
2,23,1,../static/images/invador3.png,2,20,2,10.0,right,74,2,1387.0,1.671502224,1,0,2,460.0,118.0,3.8983050847457625,7.796610169491525,6.58887731315966,13.17775462631932
2,24,1,../static/images/invador4.png,1,80,2,40.0,right,74,2,1044.0,0.292564587,0,0,2,480.0,122.0,3.9344262295081966,7.868852459016393,6.557399159917388,13.114798319834776
2,25,1,../static/images/invador1.png,4,20,8,2.5,left,74,1,1058.0,0.348847756,0,0,2,560.0,126.0,4.444444444444445,35.55555555555556,6.880441251732489,55.043530013859915
2,26,1,../static/images/invador2.png,3,80,8,10.0,left,70,2,1467.0,1.993120331,0,0,2,560.0,128.0,4.375,35.0,6.822297691830986,54.57838153464789
2,27,1,../static/images/invador1.png,4,20,8,2.5,left,74,1,872.0,-0.398914345,0,0,2,640.0,138.0,4.63768115942029,37.10144927536232,6.971722619314577,55.77378095451662
2,28,1,../static/images/invador1.png,4,20,8,2.5,left,74,1,828.0,-0.575804304,0,0,2,640.0,140.0,4.571428571428571,36.57142857142857,6.912807681027631,55.302461448221045
2,29,1,../static/images/invador4.png,1,80,2,40.0,left,74,1,479.0,-1.978863299,2,0,2,640.0,142.0,4.507042253521127,9.014084507042254,6.85439060677557,13.70878121355114
2,30,1,../static/images/invador1.png,4,20,8,2.5,left,74,1,841.0,-0.523541361,2,0,2,640.0,144.0,4.444444444444445,35.55555555555556,6.796467189330068,54.37173751464054
2,31,1,../static/images/invador1.png,4,20,8,2.5,left,74,1,974.0,0.011148743,0,0,2,640.0,146.0,4.383561643835616,35.06849315068493,6.73903325701622,53.91226605612976
2,32,1,../static/images/invador1.png,4,20,8,2.5,right,70,1,935.0,-0.145640085,0,0,2,640.0,148.0,4.324324324324325,34.5945945945946,6.682084673412097,53.45667738729678
2,33,1,../static/images/invador3.png,2,20,2,10.0,right,70,1,1326.0,1.426268417,0,0,2,640.0,150.0,4.266666666666667,8.533333333333333,6.62561733705084,13.25123467410168
2,34,1,../static/images/invador2.png,3,80,8,10.0,right,70,1,749.0,-0.893402185,0,0,2,640.0,152.0,4.2105263157894735,33.68421052631579,6.5696271811252664,52.55701744900213
2,35,1,../static/images/invador1.png,4,20,8,2.5,right,70,1,1001.0,0.119694854,0,0,2,640.0,154.0,4.1558441558441555,33.246753246753244,6.514110173194981,52.112881385559845
2,36,1,../static/images/invador2.png,3,80,8,10.0,left,74,1,1072.0,0.405130925,2,0,2,640.0,156.0,4.102564102564102,32.82051282051282,6.459062314895954,51.67249851916763
2,37,1,../static/images/invador1.png,4,20,8,2.5,left,74,1,1052.0,0.324726398,0,0,2,640.0,158.0,4.050632911392405,32.40506329113924,6.404479641652559,51.23583713322047
2,38,1,../static/images/invador1.png,4,20,8,2.5,right,74,2,1027.0,0.224220739,1,0,2,640.0,160.0,4.0,32.0,6.350358222392041,50.802865779136326
2,39,1,../static/images/invador1.png,4,20,8,2.5,left,70,2,1047.0,0.304625266,1,0,2,660.0,170.0,3.8823529411764706,31.058823529411764,6.168273332360396,49.34618665888317
2,40,1,../static/images/invador3.png,2,20,2,10.0,right,70,1,1271.0,1.205155968,0,0,2,680.0,180.0,3.7777777777777777,7.555555555555555,5.994790976757783,11.989581953515566
2,41,1,../static/images/invador4.png,1,80,2,40.0,left,70,2,925.0,-0.185842348,0,0,2,680.0,182.0,3.7362637362637363,7.472527472527473,5.944131654847821,11.888263309695642
2,42,1,../static/images/invador2.png,3,80,8,10.0,right,74,2,1358.0,1.55491566,0,0,2,760.0,186.0,4.086021505376344,32.68817204301075,6.281080595872406,50.24864476697925
2,43,1,../static/images/invador1.png,4,20,8,2.5,right,70,1,1004.0,0.131755533,0,0,2,840.0,196.0,4.285714285714286,34.285714285714285,6.456075128284532,51.64860102627625
2,44,1,../static/images/invador1.png,4,20,8,2.5,left,74,1,798.0,-0.696411094,0,0,2,840.0,198.0,4.242424242424242,33.93939393939394,6.401517698431396,51.21214158745117
2,45,1,../static/images/invador4.png,1,80,2,40.0,left,70,2,1108.0,0.549859073,0,0,2,840.0,200.0,4.2,8.4,6.347421309240433,12.694842618480866
2,46,1,../static/images/invador1.png,4,20,8,2.5,right,70,1,805.0,-0.66826951,2,0,2,920.0,204.0,4.509803921568627,36.07843137254902,6.675224994132872,53.40179995306298
2,47,1,../static/images/invador3.png,2,20,2,10.0,right,70,1,1454.0,1.940857389,0,0,2,920.0,206.0,4.466019417475728,8.932038834951456,6.618815625881287,13.237631251762574
2,48,1,../static/images/invador1.png,4,20,8,2.5,left,74,1,818.0,-0.616006567,0,0,2,920.0,208.0,4.423076923076923,35.38461538461539,6.56288294820258,52.50306358562064
2,49,1,../static/images/invador1.png,4,20,8,2.5,left,74,1,999.0,0.111654401,0,0,2,920.0,210.0,4.380952380952381,35.04761904761905,6.5074229327959685,52.05938346236775
2,50,1,../static/images/invador4.png,1,80,2,40.0,right,74,2,1125.0,0.618202921,0,0,2,920.0,212.0,4.339622641509434,8.679245283018869,6.452431585402055,12.90486317080411
2,51,1,../static/images/invador2.png,3,80,8,10.0,left,70,2,1417.0,1.792109014,0,0,2,1000.0,216.0,4.62962962962963,37.03703703703704,6.777853989590799,54.22283191672639
2,52,1,../static/images/invador1.png,4,20,8,2.5,right,70,1,1036.0,0.260402776,0,0,2,1080.0,226.0,4.778761061946903,38.230088495575224,6.929378643628353,55.435029149026825
2,53,1,../static/images/invador1.png,4,20,8,2.5,left,74,1,869.0,-0.410975024,0,0,2,1080.0,228.0,4.7368421052631575,37.89473684210526,6.870821535514895,54.96657228411916
2,54,1,../static/images/invador1.png,4,20,8,2.5,left,74,1,790.0,-0.728572905,0,0,2,1080.0,230.0,4.695652173913044,37.56521739130435,6.8127592675721,54.5020741405768
2,55,1,../static/images/invador3.png,2,20,2,10.0,right,70,1,1106.0,0.54181862,0,0,2,1080.0,232.0,4.655172413793103,9.310344827586206,6.75518765812498,13.51037531624996
2,56,1,../static/images/invador1.png,4,20,8,2.5,left,70,2,863.0,-0.435096382,1,0,2,1080.0,234.0,4.615384615384615,36.92307692307692,6.698102560836025,53.5848204866882
2,57,1,../static/images/invador1.png,4,20,8,2.5,left,74,1,901.0,-0.282327781,0,0,2,1100.0,244.0,4.508196721311475,36.0655737704918,6.499588615963829,51.996708927710635
2,58,1,../static/images/invador2.png,3,80,8,10.0,left,70,2,1369.0,1.599138149,0,0,2,1100.0,246.0,4.471544715447155,35.77235772357724,6.44466347290963,51.55730778327704
2,59,1,../static/images/invador1.png,4,20,8,2.5,right,70,1,819.0,-0.611986341,0,0,2,1180.0,256.0,4.609375,36.875,6.611929591769877,52.89543673415901
2,60,1,../static/images/invador1.png,4,20,8,2.5,right,70,1,750.0,-0.889381959,0,0,2,1180.0,258.0,4.573643410852713,36.58914728682171,6.55605510491385,52.4484408393108
2,61,1,../static/images/invador4.png,1,80,2,40.0,right,74,2,1400.0,1.723765166,0,0,2,1180.0,260.0,4.538461538461538,9.076923076923077,6.500652788585064,13.001305577170127
2,62,1,../static/images/invador3.png,2,20,2,10.0,left,70,2,819.0,-0.611986341,1,0,2,1260.0,264.0,4.7727272727272725,9.545454545454545,6.824981697690792,13.649963395381585
2,63,1,../static/images/invador3.png,2,20,2,10.0,right,70,1,829.0,-0.571784077,0,0,2,1280.0,268.0,4.776119402985074,9.552238805970148,6.788149489250372,13.576298978500745
2,64,1,../static/images/invador4.png,1,80,2,40.0,left,70,2,1057.0,0.344827529,0,0,2,1280.0,270.0,4.7407407407407405,9.481481481481481,6.73078584613385,13.4615716922677
2,65,1,../static/images/invador1.png,4,20,8,2.5,left,74,1,949.0,-0.089356916,0,0,2,1360.0,274.0,4.963503649635037,39.70802919708029,7.049896109700736,56.39916887760589
2,66,1,../static/images/invador2.png,3,80,8,10.0,right,74,2,1113.0,0.569960205,0,0,2,1360.0,276.0,4.927536231884058,39.42028985507246,6.990320561889679,55.922564495117435
2,67,1,../static/images/invador1.png,4,20,8,2.5,left,74,1,814.0,-0.632087473,2,0,2,1440.0,286.0,5.034965034965035,40.27972027972028,7.131807309965339,57.05445847972271
2,68,1,../static/images/invador1.png,4,20,8,2.5,left,74,1,976.0,0.019189195,0,0,2,1440.0,288.0,5.0,40.0,7.071539566900381,56.57231653520305
2,69,1,../static/images/invador1.png,4,20,8,2.5,left,74,1,752.0,-0.881341506,0,0,2,1440.0,290.0,4.9655172413793105,39.724137931034484,7.011781119823984,56.09424895859187
2,70,1,../static/images/invador4.png,1,80,2,40.0,left,70,2,889.0,-0.330570497,1,0,2,1440.0,292.0,4.931506849315069,9.863013698630137,6.952527664901444,13.905055329802888
2,71,1,../static/images/invador1.png,4,20,8,2.5,left,74,1,882.0,-0.358712081,0,0,2,1520.0,296.0,5.135135135135135,41.08108108108108,7.2666095680684295,58.132876544547436
2,72,1,../static/images/invador1.png,4,20,8,2.5,left,74,1,825.0,-0.587864983,0,0,2,1520.0,298.0,5.100671140939597,40.80536912751678,7.205202670858831,57.641621366870645
2,73,1,../static/images/invador1.png,4,20,8,2.5,right,70,1,663.0,-1.239141651,0,0,2,1520.0,300.0,5.066666666666666,40.53333333333333,7.144314696124643,57.15451756899714
2,74,1,../static/images/invador3.png,2,20,2,10.0,left,74,1,673.0,-1.198939387,0,0,2,1520.0,302.0,5.033112582781457,10.066225165562914,7.083941258681992,14.167882517363983
2,75,1,../static/images/invador2.png,3,80,8,10.0,left,70,2,808.0,-0.656208831,1,0,2,1520.0,304.0,5.0,40.0,7.024078010404247,56.19262408323397
2,76,1,../static/images/invador1.png,4,20,8,2.5,right,70,1,806.0,-0.664249283,0,0,2,1600.0,314.0,5.095541401273885,40.76433121019108,7.1639699000980155,57.311759200784124
2,77,1,../static/images/invador1.png,4,20,8,2.5,right,70,1,784.0,-0.752694263,0,0,2,1600.0,316.0,5.063291139240507,40.50632911392405,7.103430365236929,56.82744292189543
2,78,1,../static/images/invador1.png,4,20,8,2.5,right,70,1,754.0,-0.873301053,2,0,2,1600.0,318.0,5.031446540880503,40.25157232704402,7.043402423156426,56.34721938525141
2,79,1,../static/images/invador2.png,3,80,8,10.0,left,70,2,597.0,-1.50447659,1,0,2,1600.0,320.0,5.0,40.0,6.983881750612631,55.87105400490105
2,80,1,../static/images/invador4.png,1,80,2,40.0,right,70,1,637.0,-1.343667536,2,0,2,1680.0,330.0,5.090909090909091,10.181818181818182,7.1256726979861185,14.251345395972237
2,81,1,../static/images/invador1.png,4,20,8,2.5,right,70,1,1041.0,0.280503908,0,0,2,1680.0,332.0,5.0602409638554215,40.48192771084337,7.065456795808401,56.523654366467206
2,82,1,../static/images/invador3.png,2,20,2,10.0,left,74,1,1091.0,0.481515225,0,0,2,1680.0,334.0,5.029940119760479,10.059880239520957,7.0057497515348786,14.011499503069757
2,83,1,../static/images/invador1.png,4,20,8,2.5,right,70,1,674.0,-1.194919161,0,0,2,1680.0,336.0,5.0,40.0,6.9465472650329065,55.57237812026325
2,84,1,../static/images/invador1.png,4,20,8,2.5,right,70,1,826.0,-0.583844757,0,0,2,1680.0,338.0,4.970414201183432,39.76331360946745,6.887845072508356,55.10276058006685
2,85,1,../static/images/invador3.png,2,20,2,10.0,right,70,1,1264.0,1.177014383,0,0,2,1680.0,340.0,4.9411764705882355,9.882352941176471,6.829638946198533,13.659277892397066
2,86,1,../static/images/invador1.png,4,20,8,2.5,left,70,2,883.0,-0.354691855,1,0,2,1680.0,342.0,4.912280701754386,39.29824561403509,6.771924694067692,54.17539755254153
2,87,1,../static/images/invador2.png,3,80,8,10.0,right,74,2,801.0,-0.684350415,1,0,2,1700.0,352.0,4.829545454545454,38.63636363636363,6.569923049350441,52.55938439480353
2,88,1,../static/images/invador1.png,4,20,8,2.5,left,74,1,863.0,-0.435096382,0,0,2,1780.0,362.0,4.917127071823204,39.33701657458563,6.731271325062305,53.85017060049844
2,89,1,../static/images/invador1.png,4,20,8,2.5,left,74,1,737.0,-0.941644901,0,0,2,1780.0,364.0,4.8901098901098905,39.120879120879124,6.674388334105369,53.39510667284295
2,90,1,../static/images/invador4.png,1,80,2,40.0,left,70,2,1025.0,0.216180286,0,0,2,1780.0,366.0,4.863387978142076,9.726775956284152,6.617986036096904,13.235972072193809
2,91,1,../static/images/invador1.png,4,20,8,2.5,right,70,1,867.0,-0.419015476,0,0,2,1860.0,370.0,5.027027027027027,40.21621621621622,6.939654220858171,55.51723376686537
2,92,1,../static/images/invador1.png,4,20,8,2.5,right,70,1,1183.0,0.851376049,2,0,2,1860.0,372.0,5.0,40.0,6.881010278395239,55.04808222716191
2,93,1,../static/images/invador3.png,2,20,2,10.0,right,70,1,1515.0,2.186091196,0,0,2,1860.0,374.0,4.973262032085562,9.946524064171124,6.822861909901578,13.645723819803155
2,94,1,../static/images/invador2.png,3,80,8,10.0,right,74,2,1325.0,1.42224819,0,0,2,1860.0,376.0,4.946808510638298,39.57446808510638,6.765204927501189,54.121639420009515
2,95,1,../static/images/invador4.png,1,80,2,40.0,left,70,2,1044.0,0.292564587,0,0,2,1940.0,386.0,5.025906735751295,10.05181347150259,6.9173271818783535,13.834654363756707
2,96,1,../static/images/invador1.png,4,20,8,2.5,right,70,1,683.0,-1.158737124,0,0,2,2020.0,390.0,5.17948717948718,41.43589743589744,7.232207313885864,57.85765851108691
2,97,1,../static/images/invador1.png,4,20,8,2.5,right,70,1,705.0,-1.070292144,0,0,2,2020.0,392.0,5.153061224489796,41.224489795918366,7.171091134880756,57.36872907904605
2,98,1,../static/images/invador4.png,1,80,2,40.0,right,74,2,1285.0,1.261439136,0,0,2,2020.0,394.0,5.126903553299492,10.253807106598984,7.110491421620348,14.220982843240696
2,99,1,../static/images/invador1.png,4,20,8,2.5,left,70,2,669.0,-1.215020293,1,0,2,2100.0,398.0,5.276381909547739,42.21105527638191,7.420991236828827,59.36792989463061
2,100,1,../static/images/invador1.png,4,20,8,2.5,left,74,1,891.0,-0.322530044,0,0,2,2120.0,408.0,5.196078431372549,41.568627450980394,7.188324679279628,57.50659743423702
2,101,1,../static/images/invador2.png,3,80,8,10.0,right,70,1,575.0,-1.592921569,0,0,2,2120.0,410.0,5.170731707317073,41.36585365853659,7.127579332972673,57.02063466378139
2,102,1,../static/images/invador1.png,4,20,8,2.5,right,70,1,464.0,-2.039166694,0,0,2,2120.0,412.0,5.145631067961165,41.16504854368932,7.067347318667623,56.53877854934098
2,103,1,../static/images/invador1.png,4,20,8,2.5,left,74,1,733.0,-0.957725807,0,0,2,2120.0,414.0,5.120772946859903,40.966183574879224,7.007624298423216,56.060994387385726
2,104,1,../static/images/invador3.png,2,20,2,10.0,left,74,1,1159.0,0.754890617,0,0,2,2120.0,416.0,5.096153846153846,10.192307692307692,6.948405970956209,13.896811941912418
2,105,1,../static/images/invador4.png,1,80,2,40.0,right,74,2,1157.0,0.746850164,0,0,2,2120.0,418.0,5.07177033492823,10.14354066985646,6.8896880713316,13.7793761426632
2,106,1,../static/images/invador1.png,4,20,8,2.5,left,74,1,744.0,-0.913503317,0,0,2,2200.0,422.0,5.213270142180095,41.70616113744076,7.205194965623888,57.641559724991104
2,107,1,../static/images/invador1.png,4,20,8,2.5,right,70,1,721.0,-1.005968523,0,0,2,2200.0,424.0,5.188679245283019,41.509433962264154,7.1443070560032265,57.15445644802581
2,108,1,../static/images/invador1.png,4,20,8,2.5,right,74,2,886.0,-0.342631176,1,0,2,2200.0,426.0,5.164319248826291,41.31455399061033,7.083933683123856,56.67146946499085
2,109,1,../static/images/invador1.png,4,20,8,2.5,right,70,1,858.0,-0.455197513,0,0,2,2220.0,436.0,5.091743119266055,40.73394495412844,6.867191287155601,54.937530297244805
2,110,1,../static/images/invador2.png,3,80,8,10.0,left,70,2,750.0,-0.889381959,1,0,2,2220.0,438.0,5.068493150684931,40.54794520547945,6.80915969683292,54.47327757466336
2,111,1,../static/images/invador3.png,2,20,2,10.0,right,70,1,854.0,-0.471278419,0,0,2,2300.0,448.0,5.133928571428571,10.267857142857142,6.959205324113621,13.918410648227242
2,112,1,../static/images/invador1.png,4,20,8,2.5,right,70,1,695.0,-1.110494408,0,0,2,2300.0,450.0,5.111111111111111,40.888888888888886,6.900396163941289,55.20316931153031
2,113,1,../static/images/invador1.png,4,20,8,2.5,left,74,1,699.0,-1.094413502,0,0,2,2300.0,452.0,5.088495575221239,40.70796460176991,6.8420839739198716,54.73667179135897
2,114,1,../static/images/invador3.png,2,20,2,10.0,right,70,1,630.0,-1.37180912,0,0,2,2300.0,454.0,5.066079295154185,10.13215859030837,6.78426455437486,13.56852910874972
2,115,1,../static/images/invador4.png,1,80,2,40.0,right,70,1,909.0,-0.25016597,2,0,2,2300.0,456.0,5.043859649122807,10.087719298245615,6.726933741121334,13.453867482242668
2,116,1,../static/images/invador1.png,4,20,8,2.5,left,74,1,891.0,-0.322530044,0,0,2,2300.0,458.0,5.021834061135372,40.17467248908297,6.670087405164052,53.36069924131242
2,117,1,../static/images/invador1.png,4,20,8,2.5,right,70,1,567.0,-1.62508338,2,0,2,2300.0,460.0,5.0,40.0,6.613721452400084,52.90977161920067
2,118,1,../static/images/invador2.png,3,80,8,10.0,right,74,2,1253.0,1.132791893,0,0,2,2300.0,462.0,4.978354978354979,39.82683982683983,6.557831823323947,52.462654586591576
2,119,1,../static/images/invador1.png,4,20,8,2.5,left,74,1,853.0,-0.475298645,0,0,2,2380.0,472.0,5.0423728813559325,40.33898305084746,6.71975134461343,53.75801075690744
2,120,1,../static/images/invador3.png,2,20,2,10.0,left,74,1,759.0,-0.853199922,0,0,2,2380.0,474.0,5.0210970464135025,10.042194092827005,6.662965703906106,13.325931407812211
2,121,1,../static/images/invador2.png,3,80,8,10.0,right,74,2,1361.0,1.566976339,0,0,2,2380.0,476.0,5.0,40.0,6.606659933483435,52.85327946786748
2,122,1,../static/images/invador1.png,4,20,8,2.5,left,70,2,816.0,-0.62404702,1,0,2,2460.0,486.0,5.061728395061729,40.49382716049383,6.766272588460844,54.130180707686755
2,123,1,../static/images/invador1.png,4,20,8,2.5,left,74,1,677.0,-1.182858482,2,0,2,2480.0,496.0,5.0,40.0,6.564537975418056,52.51630380334445
2,124,1,../static/images/invador1.png,4,20,8,2.5,left,74,1,625.0,-1.391910252,2,0,2,2480.0,498.0,4.979919678714859,39.83935742971887,6.509063974109885,52.07251179287908
2,125,1,../static/images/invador4.png,1,80,2,40.0,right,70,1,662.0,-1.243161877,2,0,2,2480.0,500.0,4.96,9.92,6.4540587590030665,12.908117518006133
2,126,1,../static/images/invador2.png,3,80,8,10.0,right,74,2,1444.0,1.900655125,0,0,2,2480.0,502.0,4.940239043824701,39.52191235059761,6.399518368593161,51.19614694874529
2,127,1,../static/images/invador1.png,4,20,8,2.5,left,74,1,894.0,-0.310469365,0,0,2,2560.0,512.0,5.0,40.0,6.5689173514934565,52.55133881194765
2,128,1,../static/images/invador3.png,2,20,2,10.0,left,74,1,968.0,-0.012972615,0,0,2,2560.0,514.0,4.980544747081712,9.961089494163424,6.513406342018823,13.026812684037646
2,129,1,../static/images/invador4.png,1,80,2,40.0,left,70,2,1214.0,0.976003066,0,0,2,2560.0,516.0,4.961240310077519,9.922480620155039,6.458364431485157,12.916728862970315
2,130,1,../static/images/invador1.png,4,20,8,2.5,right,70,1,704.0,-1.074312371,0,0,2,2640.0,520.0,5.076923076923077,40.61538461538461,6.783652298632269,54.26921838905815
2,131,1,../static/images/invador1.png,4,20,8,2.5,left,74,1,853.0,-0.475298645,0,0,2,2640.0,522.0,5.057471264367816,40.45977011494253,6.726326659280698,53.81061327424558
2,132,1,../static/images/invador1.png,4,20,8,2.5,right,70,1,814.0,-0.632087473,2,0,2,2640.0,524.0,5.038167938931298,40.30534351145038,6.669485453503018,53.355883628024145
2,133,1,../static/images/invador2.png,3,80,8,10.0,left,74,1,1959.0,3.971071694,0,0,2,2640.0,526.0,5.019011406844107,40.152091254752854,6.613124587565777,52.90499670052622
2,134,1,../static/images/invador3.png,2,20,2,10.0,right,74,0,NaN,NaN,1,1,2,2640.0,528.0,5.0,10.0,6.55724000232985,13.1144800046597
2,135,1,../static/images/invador1.png,4,20,8,2.5,left,74,1,1152.0,0.726749032,0,0,2,2640.0,538.0,4.907063197026022,39.25650557620818,6.284821601775196,50.27857281420157
2,136,1,../static/images/invador1.png,4,20,8,2.5,right,70,1,635.0,-1.351707989,2,0,2,2640.0,540.0,4.888888888888889,39.111111111111114,6.231711359582362,49.853690876658895
2,137,1,../static/images/invador1.png,4,20,8,2.5,right,70,1,950.0,-0.08533669,0,0,2,2640.0,542.0,4.870848708487085,38.96678966789668,6.179049928510115,49.43239942808092
2,138,1,../static/images/invador1.png,4,20,8,2.5,right,70,1,651.0,-1.287384367,2,0,2,2640.0,544.0,4.852941176470588,38.8235294117647,6.126833515854569,49.014668126836554
2,139,1,../static/images/invador4.png,1,80,2,40.0,left,70,2,529.0,-1.777851981,1,0,2,2640.0,546.0,4.835164835164835,9.67032967032967,6.075058360962298,12.150116721924595
2,140,1,../static/images/invador2.png,3,80,8,10.0,right,74,2,1414.0,1.780048335,0,0,2,2720.0,550.0,4.945454545454545,39.56363636363636,6.409038323613862,51.272306588910894
2,141,1,../static/images/invador1.png,4,20,8,2.5,right,70,1,1084.0,0.453373641,0,0,2,2800.0,560.0,5.0,40.0,6.577987539700369,52.62390031760295
2,142,1,../static/images/invador4.png,1,80,2,40.0,right,74,2,1236.0,1.064448045,0,0,2,2800.0,562.0,4.98220640569395,9.9644128113879,6.522399882084718,13.044799764169436
2,143,1,../static/images/invador1.png,4,20,8,2.5,right,70,1,823.0,-0.595905436,0,0,2,2880.0,566.0,5.088339222614841,40.706713780918726,6.846235640081765,54.76988512065412
2,144,1,../static/images/invador3.png,2,20,2,10.0,left,74,1,727.0,-0.981847165,2,0,2,2880.0,568.0,5.070422535211268,10.140845070422536,6.78838113664586,13.57676227329172
2,145,1,../static/images/invador1.png,4,20,8,2.5,left,74,1,839.0,-0.531581814,0,0,2,2880.0,570.0,5.052631578947368,40.421052631578945,6.7310155359798545,53.848124287838836
2,146,1,../static/images/invador1.png,4,20,8,2.5,left,74,1,785.0,-0.748674037,0,0,2,2880.0,572.0,5.034965034965035,40.27972027972028,6.6741347065831,53.3930776526648
2,147,1,../static/images/invador4.png,1,80,2,40.0,right,70,1,727.0,-0.981847165,2,0,2,2880.0,574.0,5.017421602787456,10.034843205574912,6.61773455186843,13.23546910373686
2,148,1,../static/images/invador1.png,4,20,8,2.5,left,74,1,1143.0,0.690566995,0,0,2,2880.0,576.0,5.0,40.0,6.56181100986712,52.49448807893696
2,149,1,../static/images/invador1.png,4,20,8,2.5,left,74,1,846.0,-0.50344023,0,0,2,2880.0,578.0,4.982698961937716,39.86159169550173,6.506360052936345,52.05088042349076
2,150,1,../static/images/invador1.png,4,20,8,2.5,right,70,1,778.0,-0.776815621,0,0,2,2880.0,580.0,4.9655172413793105,39.724137931034484,6.451377687469102,51.611021499752816
2,151,0,../static/images/invador4.png,1,80,2,40.0,right,74,2,1298.0,1.313702079,0,0,2,2880.0,582.0,4.948453608247423,9.896907216494846,6.396859953606593,12.793719907213186
2,152,0,../static/images/invador3.png,2,20,2,10.0,right,70,1,885.0,-0.346651402,2,0,2,2960.0,586.0,5.051194539249146,10.102389078498293,6.723542535935081,13.447085071870163
2,153,0,../static/images/invador4.png,1,80,2,40.0,left,70,2,1222.0,1.008164877,0,0,2,2960.0,588.0,5.034013605442177,10.068027210884354,6.666724857549991,13.333449715099983
2,154,0,../static/images/invador4.png,1,80,2,40.0,left,70,2,1022.0,0.204119607,0,0,2,3040.0,592.0,5.135135135135135,10.27027027027027,6.987287809382735,13.97457561876547
2,155,0,../static/images/invador3.png,2,20,2,10.0,right,70,1,761.0,-0.845159469,0,0,2,3120.0,596.0,5.23489932885906,10.46979865771812,7.300581469109778,14.601162938219556
2,156,0,../static/images/invador4.png,1,80,2,40.0,right,74,2,1101.0,0.521717489,0,0,2,3120.0,598.0,5.217391304347826,10.434782608695652,7.23888749041937,14.47777498083874
2,157,0,../static/images/invador4.png,1,80,2,40.0,right,74,2,830.0,-0.567763851,1,0,2,3200.0,602.0,5.3156146179401995,10.631229235880399,7.546475713617644,15.092951427235288
2,158,0,../static/images/invador4.png,1,80,2,40.0,left,70,2,1111.0,0.561919752,0,0,2,3280.0,606.0,5.412541254125412,10.825082508250825,7.847088868019234,15.694177736038467
2,159,0,../static/images/invador2.png,3,80,8,10.0,left,70,2,1214.0,0.976003066,0,0,2,3360.0,610.0,5.508196721311475,44.0655737704918,8.140885124779757,65.12708099823806
2,160,0,../static/images/invador1.png,4,20,8,2.5,right,70,1,848.0,-0.495399777,0,0,2,3440.0,620.0,5.548387096774194,44.38709677419355,8.228013868391862,65.8241109471349
2,161,0,../static/images/invador2.png,3,80,8,10.0,left,74,1,1095.0,0.497596131,2,0,2,3440.0,622.0,5.530546623794212,44.244372990353696,8.158482569493442,65.26786055594754
2,162,0,../static/images/invador3.png,2,20,2,10.0,left,74,1,1082.0,0.445333188,0,0,2,3440.0,624.0,5.512820512820513,11.025641025641026,8.089538848788719,16.179077697577437
2,163,0,../static/images/invador4.png,1,80,2,40.0,right,74,2,899.0,-0.290368233,1,0,2,3440.0,626.0,5.49520766773163,10.99041533546326,8.021177740914766,16.04235548182953
2,164,0,../static/images/invador4.png,1,80,2,40.0,right,70,1,834.0,-0.551682946,2,0,2,3520.0,630.0,5.587301587301587,11.174603174603174,8.311026246189366,16.62205249237873
2,165,0,../static/images/invador1.png,4,20,8,2.5,right,70,1,971.0,-0.000911936,0,0,2,3520.0,632.0,5.569620253164557,44.55696202531646,8.24079344647371,65.92634757178968
2,166,0,../static/images/invador4.png,1,80,2,40.0,left,70,2,1320.0,1.402147058,0,0,2,3520.0,634.0,5.55205047318612,11.10410094637224,8.17115415302428,16.34230830604856
2,167,0,../static/images/invador4.png,1,80,2,40.0,left,70,2,942.0,-0.1174985,0,0,2,3600.0,638.0,5.6426332288401255,11.285266457680251,8.45760169651476,16.91520339302952
2,168,0,../static/images/invador2.png,3,80,8,10.0,right,74,0,NaN,NaN,0,1,2,3680.0,642.0,5.73208722741433,45.85669781931464,8.737553570887242,69.90042856709793
2,169,0,../static/images/invador1.png,4,20,8,2.5,left,74,1,975.0,0.015168969,0,0,2,3680.0,652.0,5.644171779141105,45.15337423312884,8.374554753138312,66.9964380251065
2,170,0,../static/images/invador4.png,1,80,2,40.0,right,74,2,986.0,0.059391459,0,0,2,3680.0,654.0,5.626911314984709,11.253822629969418,8.303785102163543,16.607570204327086
2,171,0,../static/images/invador4.png,1,80,2,40.0,right,74,2,1213.0,0.971982839,0,0,2,3760.0,658.0,5.714285714285714,11.428571428571429,8.587225020767747,17.174450041535493
2,172,0,../static/images/invador4.png,1,80,2,40.0,right,74,2,1144.0,0.694587222,0,0,2,3840.0,662.0,5.80060422960725,11.6012084592145,8.864237473094358,17.728474946188715
2,173,0,../static/images/invador3.png,2,20,2,10.0,right,70,1,915.0,-0.226044612,0,0,2,3920.0,666.0,5.885885885885886,11.771771771771771,9.134968212511334,18.269936425022667
2,174,0,../static/images/invador4.png,1,80,2,40.0,left,70,2,1059.0,0.352867982,0,0,2,3920.0,668.0,5.868263473053892,11.736526946107784,9.057772644374083,18.115545288748166
2,175,0,../static/images/invador4.png,1,80,2,40.0,right,74,2,1087.0,0.46543432,0,0,2,4000.0,672.0,5.9523809523809526,11.904761904761905,9.324114655509403,18.648229311018806
2,176,0,../static/images/invador1.png,4,20,8,2.5,right,70,1,778.0,-0.776815621,0,0,2,4080.0,676.0,6.035502958579881,48.28402366863905,9.584416923536878,76.67533538829503
2,177,0,../static/images/invador2.png,3,80,8,10.0,left,74,1,1152.0,0.726749032,0,0,2,4080.0,678.0,6.017699115044247,48.14159292035398,9.503423263519169,76.02738610815335
2,178,0,../static/images/invador3.png,2,20,2,10.0,right,70,1,695.0,-1.110494408,0,0,2,4080.0,680.0,6.0,12.0,9.423114045029347,18.846228090058695
2,179,0,../static/images/invador4.png,1,80,2,40.0,left,70,2,1066.0,0.381009567,0,0,2,4080.0,682.0,5.9824046920821115,11.964809384164223,9.343483484155378,18.686966968310756
2,180,0,../static/images/invador4.png,1,80,2,40.0,left,70,2,1008.0,0.147836438,0,0,2,4160.0,686.0,6.0641399416909625,12.128279883381925,9.603346532140835,19.20669306428167
2,181,0,../static/images/invador4.png,1,80,2,40.0,left,70,2,790.0,-0.728572905,1,0,2,4240.0,690.0,6.144927536231884,12.289855072463768,9.85731675816267,19.71463351632534
2,182,0,../static/images/invador4.png,1,80,2,40.0,right,74,2,1174.0,0.815194012,0,0,2,4320.0,694.0,6.22478386167147,12.44956772334294,10.10552779164978,20.21105558329956
2,183,0,../static/images/invador2.png,3,80,8,10.0,right,70,1,694.0,-1.114514634,2,0,2,4400.0,698.0,6.303724928366762,50.429799426934096,10.348110231764016,82.78488185411213
2,184,0,../static/images/invador4.png,1,80,2,40.0,right,74,2,1227.0,1.028266008,0,0,2,4400.0,700.0,6.285714285714286,12.571428571428571,10.260662938034647,20.521325876069294
2,185,0,../static/images/invador4.png,1,80,2,40.0,right,74,2,848.0,-0.495399777,0,0,2,4480.0,704.0,6.363636363636363,12.727272727272727,10.49972743358141,20.99945486716282
2,186,0,../static/images/invador1.png,4,20,8,2.5,left,74,1,816.0,-0.62404702,2,0,2,4560.0,708.0,6.440677966101695,51.52542372881356,10.73337074854478,85.86696598835825
2,187,0,../static/images/invador3.png,2,20,2,10.0,left,70,2,537.0,-1.745690171,1,0,2,4560.0,710.0,6.422535211267606,12.845070422535212,10.642667788919058,21.285335577838115
2,188,0,../static/images/invador4.png,1,80,2,40.0,right,74,2,1222.0,1.008164877,0,0,2,4580.0,714.0,6.4145658263305325,12.829131652661065,10.519263270090477,21.038526540180953
2,189,0,../static/images/invador4.png,1,80,2,40.0,right,74,2,1293.0,1.293600947,0,0,2,4660.0,718.0,6.49025069637883,12.98050139275766,10.752463577833886,21.504927155667772
2,190,0,../static/images/invador3.png,2,20,2,10.0,left,74,1,674.0,-1.194919161,2,0,2,4740.0,722.0,6.565096952908587,13.130193905817174,10.98037568509613,21.96075137019226
2,191,0,../static/images/invador1.png,4,20,8,2.5,left,74,1,975.0,0.015168969,0,0,2,4740.0,724.0,6.54696132596685,52.3756906077348,10.887585396213622,87.10068316970897
2,192,0,../static/images/invador2.png,3,80,8,10.0,right,74,2,818.0,-0.616006567,1,0,2,4740.0,726.0,6.528925619834711,52.231404958677686,10.795579236941776,86.36463389553421
2,193,0,../static/images/invador4.png,1,80,2,40.0,right,74,2,1220.0,1.000124424,0,0,2,4820.0,736.0,6.548913043478261,13.097826086956522,10.757287922390598,21.514575844781195
2,194,0,../static/images/invador4.png,1,80,2,40.0,right,74,2,1185.0,0.859416502,0,0,2,4900.0,740.0,6.621621621621622,13.243243243243244,10.985090629706276,21.970181259412552
2,195,0,../static/images/invador4.png,1,80,2,40.0,right,74,2,1150.0,0.71870858,0,0,2,4980.0,744.0,6.693548387096774,13.387096774193548,11.20772753600696,22.41545507201392
2,196,0,../static/images/invador2.png,3,80,8,10.0,right,70,1,1568.0,2.399163192,0,0,2,5060.0,748.0,6.764705882352941,54.11764705882353,11.425315784325935,91.40252627460748
2,197,0,../static/images/invador4.png,1,80,2,40.0,left,70,2,1335.0,1.462450454,0,0,2,5060.0,750.0,6.746666666666667,13.493333333333334,11.328765503843231,22.657531007686462
2,198,0,../static/images/invador3.png,2,20,2,10.0,left,74,1,847.0,-0.499420003,0,0,2,5140.0,754.0,6.816976127320955,13.63395225464191,11.543609017191896,23.087218034383792
2,199,0,../static/images/invador4.png,1,80,2,40.0,right,74,2,1147.0,0.706647901,0,0,2,5140.0,756.0,6.798941798941799,13.597883597883598,11.446059093020736,22.892118186041472
2,200,0,../static/images/invador4.png,1,80,2,40.0,left,70,2,1190.0,0.879517633,0,0,2,5220.0,760.0,6.868421052631579,13.736842105263158,11.658242781342889,23.316485562685777
2,201,0,../static/images/invador4.png,1,80,2,40.0,left,70,2,1198.0,0.911679444,0,0,2,5300.0,764.0,6.93717277486911,13.87434554973822,11.865614855591547,23.731229711183094
2,202,0,../static/images/invador1.png,4,20,8,2.5,right,70,1,852.0,-0.479318872,0,0,2,5380.0,768.0,7.005208333333333,56.041666666666664,12.068284427028637,96.5462754162291
2,203,0,../static/images/invador3.png,2,20,2,10.0,right,74,2,604.0,-1.476335005,1,0,2,5380.0,770.0,6.987012987012987,13.974025974025974,11.966300703482617,23.932601406965233
2,204,0,../static/images/invador1.png,4,20,8,2.5,left,74,1,960.0,-0.045134426,0,0,2,5400.0,774.0,6.976744186046512,55.81395348837209,11.812880631572579,94.50304505258063
2,205,0,../static/images/invador2.png,3,80,8,10.0,left,74,1,772.0,-0.800936979,0,0,2,5400.0,776.0,6.958762886597938,55.670103092783506,11.713055212317935,93.70444169854348
2,206,0,../static/images/invador4.png,1,80,2,40.0,right,74,2,999.0,0.111654401,0,0,2,5400.0,778.0,6.940874035989717,13.881748071979434,11.61407337344306,23.22814674688612
2,207,0,../static/images/invador4.png,1,80,2,40.0,left,70,2,1190.0,0.879517633,0,0,2,5480.0,782.0,7.0076726342711,14.0153452685422,11.82244706165342,23.64489412330684
2,208,0,../static/images/invador4.png,1,80,2,40.0,left,70,2,1146.0,0.702627674,0,0,2,5560.0,786.0,7.073791348600509,14.147582697201019,12.026095533808453,24.052191067616906
2,209,0,../static/images/invador4.png,1,80,2,40.0,right,74,2,1207.0,0.947861481,0,0,2,5640.0,790.0,7.139240506329114,14.278481012658228,12.225125941952935,24.45025188390587
2,210,0,../static/images/invador2.png,3,80,8,10.0,right,70,1,980.0,0.035270101,0,0,2,5720.0,794.0,7.204030226700252,57.632241813602015,12.419643008282815,99.35714406626252
2,211,0,../static/images/invador1.png,4,20,8,2.5,left,74,1,584.0,-1.556739532,2,0,2,5720.0,796.0,7.185929648241206,57.48743718592965,12.314690109073693,98.51752087258954
2,212,0,../static/images/invador4.png,1,80,2,40.0,left,70,2,1311.0,1.365965021,0,0,2,5720.0,798.0,7.167919799498747,14.335839598997493,12.210624120305157,24.421248240610314
2,213,0,../static/images/invador4.png,1,80,2,40.0,right,74,2,1226.0,1.024245782,0,0,2,5800.0,802.0,7.231920199501247,14.463840399002494,12.405470039289469,24.810940078578938
2,214,0,../static/images/invador3.png,2,20,2,10.0,right,74,2,767.0,-0.821038111,1,0,2,5880.0,806.0,7.295285359801489,14.590570719602978,12.59589750663237,25.19179501326474
2,215,0,../static/images/invador4.png,1,80,2,40.0,right,74,2,1201.0,0.923740123,0,0,2,5900.0,810.0,7.283950617283951,14.567901234567902,12.428200291824991,24.856400583649982
2,216,0,../static/images/invador4.png,1,80,2,40.0,right,74,2,1206.0,0.943841255,0,0,2,5980.0,814.0,7.346437346437346,14.692874692874692,12.618112313311244,25.236224626622487
2,217,0,../static/images/invador1.png,4,20,8,2.5,right,70,1,864.0,-0.431076155,0,0,2,6060.0,818.0,7.408312958435208,59.266503667481665,12.803717767395758,102.42974213916607
2,218,0,../static/images/invador4.png,1,80,2,40.0,left,70,2,1210.0,0.95992216,0,0,2,6060.0,820.0,7.390243902439025,14.78048780487805,12.695519222602856,25.391038445205712
2,219,0,../static/images/invador3.png,2,20,2,10.0,right,70,1,729.0,-0.973806712,0,0,2,6140.0,824.0,7.451456310679611,14.902912621359222,12.879369347721802,25.758738695443604
2,220,0,../static/images/invador4.png,1,80,2,40.0,left,70,2,1128.0,0.6302636,0,0,2,6140.0,826.0,7.433414043583535,14.86682808716707,12.770531504949105,25.54106300989821
2,221,0,../static/images/invador4.png,1,80,2,40.0,left,70,2,713.0,-1.038130334,1,0,2,6220.0,830.0,7.493975903614458,14.987951807228916,12.952680603206487,25.905361206412973
2,222,0,../static/images/invador2.png,3,80,8,10.0,left,74,1,933.0,-0.153680537,0,0,2,6300.0,834.0,7.553956834532374,60.431654676258994,13.130699171112642,105.04559336890114
2,223,0,../static/images/invador4.png,1,80,2,40.0,right,74,2,764.0,-0.83309879,1,0,2,6300.0,836.0,7.535885167464115,15.07177033492823,13.019737451381083,26.039474902762166
2,224,0,../static/images/invador4.png,1,80,2,40.0,left,70,2,1240.0,1.080528951,0,0,2,6380.0,840.0,7.595238095238095,15.19047619047619,13.196235394978407,26.392470789956814
2,225,0,../static/images/invador4.png,1,80,2,40.0,left,70,2,606.0,-1.468294553,1,0,2,6460.0,844.0,7.654028436018957,15.308056872037914,13.368730957449872,26.737461914899743
2,226,0,../static/images/invador4.png,1,80,2,40.0,right,74,2,1130.0,0.638304053,0,0,2,6540.0,848.0,7.712264150943396,15.424528301886792,13.53731489936951,27.07462979873902
2,227,0,../static/images/invador3.png,2,20,2,10.0,left,74,1,715.0,-1.030089881,2,0,2,6620.0,852.0,7.769953051643192,15.539906103286384,13.702075923166086,27.404151846332173
2,228,0,../static/images/invador2.png,3,80,8,10.0,left,74,1,602.0,-1.484375458,2,0,2,6620.0,854.0,7.751756440281031,62.014051522248245,13.58628575171263,108.69028601370104
2,229,0,../static/images/invador1.png,4,20,8,2.5,right,70,1,957.0,-0.057195105,0,0,2,6620.0,856.0,7.733644859813084,61.86915887850467,13.47147407168488,107.77179257347905
2,230,0,../static/images/invador4.png,1,80,2,40.0,right,74,2,758.0,-0.857220148,1,0,2,6620.0,858.0,7.715617715617715,15.43123543123543,13.357632614285427,26.715265228570853
2,231,0,../static/images/invador4.png,1,80,2,40.0,left,70,2,1309.0,1.357924569,0,0,2,6700.0,862.0,7.77262180974478,15.54524361948956,13.526468229387794,27.052936458775587
2,232,0,../static/images/invador4.png,1,80,2,40.0,right,74,2,894.0,-0.310469365,1,0,2,6780.0,866.0,7.829099307159353,15.658198614318707,13.691475219263795,27.38295043852759
2,233,0,../static/images/invador1.png,4,20,8,2.5,right,70,1,806.0,-0.664249283,0,0,2,6860.0,870.0,7.885057471264368,63.08045977011494,13.852740404286699,110.82192323429359
2,234,0,../static/images/invador4.png,1,80,2,40.0,right,74,2,1320.0,1.402147058,0,0,2,6860.0,872.0,7.86697247706422,15.73394495412844,13.735677034071337,27.471354068142674
2,235,0,../static/images/invador2.png,3,80,8,10.0,right,74,2,744.0,-0.913503317,1,0,2,6940.0,876.0,7.922374429223744,63.37899543378995,13.895939870252613,111.1675189620209
2,236,0,../static/images/invador4.png,1,80,2,40.0,right,74,2,1283.0,1.253398684,0,0,2,7020.0,886.0,7.923250564334086,15.846501128668171,13.711173144777236,27.422346289554472
2,237,0,../static/images/invador3.png,2,20,2,10.0,right,70,1,911.0,-0.242125517,0,0,2,7100.0,890.0,7.977528089887641,15.955056179775282,13.871991646945448,27.743983293890896
2,238,0,../static/images/invador3.png,2,20,2,10.0,left,74,1,767.0,-0.821038111,0,0,2,7100.0,892.0,7.959641255605381,15.919282511210762,13.754765593009703,27.509531186019405
2,239,0,../static/images/invador4.png,1,80,2,40.0,left,70,2,692.0,-1.122555087,1,0,2,7100.0,894.0,7.941834451901566,15.883668903803132,13.638530164506202,27.277060329012404
2,240,0,../static/images/invador4.png,1,80,2,40.0,left,70,2,1161.0,0.762931069,0,0,2,7180.0,898.0,7.99554565701559,15.99109131403118,13.800995965715053,27.601991931430106
2,241,0,../static/images/invador1.png,4,20,8,2.5,right,70,1,655.0,-1.271303462,2,0,2,7260.0,902.0,8.048780487804878,64.39024390243902,13.959777587702876,111.678220701623
2,242,0,../static/images/invador4.png,1,80,2,40.0,right,74,2,1350.0,1.522753849,0,0,2,7260.0,904.0,8.030973451327434,16.061946902654867,13.841809693684759,27.683619387369518
2,243,0,../static/images/invador2.png,3,80,8,10.0,right,74,2,781.0,-0.764754942,1,0,2,7340.0,908.0,8.083700440528634,64.66960352422907,13.999665797271785,111.99732637817428
2,244,0,../static/images/invador4.png,1,80,2,40.0,right,74,2,1365.0,1.583057244,0,0,2,7420.0,918.0,8.082788671023964,16.16557734204793,13.809998578085967,27.619997156171934
2,245,0,../static/images/invador4.png,1,80,2,40.0,right,74,2,1148.0,0.710668127,0,0,2,7500.0,922.0,8.134490238611713,16.268980477223426,13.968576051033281,27.937152102066563
2,246,0,../static/images/invador1.png,4,20,8,2.5,left,74,1,641.0,-1.327586631,2,0,2,7580.0,926.0,8.18574514038877,65.48596112311016,14.123557518997341,112.98846015197873
2,247,0,../static/images/invador4.png,1,80,2,40.0,left,70,2,1373.0,1.615219055,0,0,2,7580.0,928.0,8.168103448275861,16.336206896551722,14.004205593360107,28.008411186720213
2,248,0,../static/images/invador3.png,2,20,2,10.0,right,70,1,867.0,-0.419015476,0,0,2,7660.0,932.0,8.218884120171674,16.43776824034335,14.158379102858332,28.316758205716663
2,249,0,../static/images/invador4.png,1,80,2,40.0,left,74,1,618.0,-1.420051836,2,0,2,7660.0,934.0,8.201284796573876,16.402569593147753,14.038732915447323,28.077465830894646
2,250,0,../static/images/invador4.png,1,80,2,40.0,right,74,2,1344.0,1.498632491,0,0,2,7660.0,936.0,8.183760683760683,16.367521367521366,13.920097804944058,27.840195609888116
2,251,0,../static/images/invador2.png,3,80,8,10.0,left,74,1,934.0,-0.149660311,0,0,2,7740.0,940.0,8.23404255319149,65.87234042553192,14.076178596861741,112.60942877489393
2,252,0,../static/images/invador1.png,4,20,8,2.5,left,74,1,692.0,-1.122555087,0,0,2,7740.0,942.0,8.21656050955414,65.73248407643312,13.957227049499163,111.65781639599331
2,253,0,../static/images/invador3.png,2,20,2,10.0,left,70,2,764.0,-0.83309879,1,0,2,7740.0,944.0,8.19915254237288,16.39830508474576,13.839280708949117,27.678561417898234
2,254,0,../static/images/invador4.png,1,80,2,40.0,left,74,1,659.0,-1.255222556,2,0,2,7760.0,948.0,8.185654008438819,16.371308016877638,13.643387735257914,27.286775470515828
2,255,0,../static/images/invador4.png,1,80,2,40.0,right,74,2,1305.0,1.341843663,0,0,2,7760.0,950.0,8.16842105263158,16.33684210526316,13.528093511672378,27.056187023344755
2,256,0,../static/images/invador4.png,1,80,2,40.0,right,74,2,1322.0,1.410187511,0,0,2,7840.0,954.0,8.218029350104821,16.436058700209642,13.693063645599764,27.38612729119953
2,257,0,../static/images/invador4.png,1,80,2,40.0,right,74,2,1124.0,0.614182695,0,0,2,7920.0,958.0,8.267223382045929,16.534446764091857,13.854292810443297,27.708585620886595
2,258,0,../static/images/invador2.png,3,80,8,10.0,right,74,2,872.0,-0.398914345,1,0,2,8000.0,962.0,8.316008316008316,66.52806652806653,14.011865838829062,112.09492671063249
2,259,0,../static/images/invador4.png,1,80,2,40.0,left,70,2,668.0,-1.219040519,1,0,2,8080.0,972.0,8.312757201646091,16.625514403292183,13.821622233115436,27.643244466230872
2,260,0,../static/images/invador3.png,2,20,2,10.0,right,70,1,937.0,-0.137599632,0,0,2,8160.0,976.0,8.360655737704919,16.721311475409838,13.979936120569597,27.959872241139195
2,261,0,../static/images/invador2.png,3,80,8,10.0,right,70,1,720.0,-1.009988749,2,0,2,8160.0,978.0,8.343558282208589,66.74846625766871,13.861797875723623,110.89438300578898
2,262,0,../static/images/invador4.png,1,80,2,40.0,right,70,1,585.0,-1.552719306,2,0,2,8160.0,980.0,8.326530612244898,16.653061224489797,13.744657964831031,27.489315929662062
2,263,0,../static/images/invador4.png,1,80,2,40.0,right,74,2,1326.0,1.426268417,0,0,2,8160.0,982.0,8.309572301425662,16.619144602851325,13.628507951414,27.257015902828
2,264,0,../static/images/invador1.png,4,20,8,2.5,left,74,1,787.0,-0.740633584,0,0,2,8240.0,986.0,8.356997971602434,66.85598377281947,13.791201022786469,110.32960818229175
2,265,0,../static/images/invador4.png,1,80,2,40.0,left,74,1,607.0,-1.464274326,2,0,2,8240.0,988.0,8.34008097165992,16.68016194331984,13.674657694612547,27.349315389225094
2,266,0,../static/images/invador4.png,1,80,2,40.0,left,70,2,1270.0,1.201135741,0,0,2,8240.0,990.0,8.323232323232324,16.646464646464647,13.559099222458011,27.118198444916022
2,267,0,../static/images/invador4.png,1,80,2,40.0,left,70,2,1052.0,0.324726398,0,0,2,8320.0,994.0,8.370221327967807,16.740442655935613,13.723366250903752,27.446732501807503
2,268,0,../static/images/invador2.png,3,80,8,10.0,left,74,1,869.0,-0.410975024,0,0,2,8400.0,998.0,8.41683366733467,67.33466933867736,13.88390825433871,111.07126603470968
2,269,0,../static/images/invador4.png,1,80,2,40.0,left,74,1,636.0,-1.347687762,2,0,2,8400.0,1000.0,8.4,16.8,13.766581498434814,27.533162996869628
2,270,0,../static/images/invador4.png,1,80,2,40.0,left,70,2,1190.0,0.879517633,0,0,2,8400.0,1002.0,8.383233532934131,16.766467065868262,13.650246218950869,27.300492437901738
2,271,0,../static/images/invador3.png,2,20,2,10.0,right,74,2,772.0,-0.800936979,1,0,2,8480.0,1006.0,8.429423459244532,16.858846918489064,13.812446339357873,27.624892678715746
2,272,0,../static/images/invador1.png,4,20,8,2.5,right,70,1,910.0,-0.246145743,0,0,2,8500.0,1010.0,8.415841584158416,67.32673267326733,13.617161879126868,108.93729503301495
2,273,0,../static/images/invador4.png,1,80,2,40.0,right,74,2,1213.0,0.971982839,0,0,2,8500.0,1012.0,8.399209486166008,16.798418972332016,13.502089278629319,27.004178557258637
2,274,0,../static/images/invador4.png,1,80,2,40.0,right,70,1,704.0,-1.074312371,2,0,2,8580.0,1016.0,8.44488188976378,16.88976377952756,13.667649101305493,27.335298202610986
2,275,0,../static/images/invador2.png,3,80,8,10.0,right,70,1,1410.0,1.76396743,0,0,2,8580.0,1018.0,8.428290766208251,67.42632612966601,13.552149855667087,108.4171988453367
2,276,0,../static/images/invador1.png,4,20,8,2.5,left,74,1,800.0,-0.688370642,0,0,2,8580.0,1020.0,8.411764705882353,67.29411764705883,13.437626642969251,107.50101314375401
2,277,0,../static/images/invador4.png,1,80,2,40.0,right,74,2,1067.0,0.385029793,0,0,2,8580.0,1022.0,8.395303326810176,16.79060665362035,13.324071215190141,26.648142430380283
2,278,0,../static/images/invador3.png,2,20,2,10.0,right,74,2,645.0,-1.311505725,1,0,2,8660.0,1026.0,8.440545808966862,16.881091617933723,13.493667890209458,26.987335780418917
2,279,0,../static/images/invador4.png,1,80,2,40.0,left,70,2,1240.0,1.080528951,0,0,2,8680.0,1030.0,8.427184466019417,16.854368932038835,13.30561225555113,26.61122451110226
2,280,0,../static/images/invador2.png,3,80,8,10.0,right,70,1,1084.0,0.453373641,0,0,2,8760.0,1034.0,8.471953578336556,67.77562862669245,13.475627517836433,107.80502014269146
2,281,0,../static/images/invador4.png,1,80,2,40.0,right,70,1,521.0,-1.810013792,2,0,2,8760.0,1036.0,8.455598455598455,16.91119691119691,13.36175096150418,26.72350192300836
2,282,0,../static/images/invador1.png,4,20,8,2.5,left,74,1,876.0,-0.382833439,0,0,2,8760.0,1038.0,8.439306358381502,67.51445086705202,13.24883672548428,105.99069380387424
2,283,0,../static/images/invador3.png,2,20,2,10.0,right,70,1,636.0,-1.347687762,0,0,2,8760.0,1040.0,8.423076923076923,16.846153846153847,13.13687667763423,26.27375335526846
2,284,0,../static/images/invador4.png,1,80,2,40.0,right,74,2,1090.0,0.477494999,0,0,2,8760.0,1042.0,8.406909788867562,16.813819577735124,13.025862754532664,26.051725509065328
2,285,0,../static/images/invador4.png,1,80,2,40.0,left,70,2,1417.0,1.792109014,0,0,2,8840.0,1046.0,8.451242829827915,16.90248565965583,13.202221796807828,26.404443593615657
2,286,0,../static/images/invador4.png,1,80,2,40.0,right,74,2,1233.0,1.052387366,0,0,2,8920.0,1050.0,8.495238095238095,16.99047619047619,13.374581607773042,26.749163215546083
2,287,0,../static/images/invador4.png,1,80,2,40.0,left,70,2,1206.0,0.943841255,0,0,2,9000.0,1054.0,8.538899430740038,17.077798861480076,13.543032876575081,27.086065753150162
2,288,0,../static/images/invador4.png,1,80,2,40.0,right,74,2,1315.0,1.382045927,0,0,2,9080.0,1058.0,8.582230623818525,17.16446124763705,13.70766423583518,27.41532847167036
2,289,0,../static/images/invador3.png,2,20,2,10.0,left,74,1,834.0,-0.551682946,0,0,2,9160.0,1062.0,8.625235404896422,17.250470809792844,13.86856230828413,27.73712461656826
2,290,0,../static/images/invador4.png,1,80,2,40.0,right,74,2,1193.0,0.891578313,0,0,2,9160.0,1064.0,8.609022556390977,17.218045112781954,13.751365234169675,27.50273046833935
2,291,0,../static/images/invador4.png,1,80,2,40.0,left,70,2,1056.0,0.340807303,0,0,2,9240.0,1068.0,8.651685393258427,17.303370786516854,13.911272314614129,27.822544629228258
2,292,0,../static/images/invador2.png,3,80,8,10.0,left,74,1,671.0,-1.20697984,2,0,2,9320.0,1072.0,8.694029850746269,69.55223880597015,14.06755323903876,112.54042591231008
2,293,0,../static/images/invador1.png,4,20,8,2.5,left,74,1,859.0,-0.451177287,0,0,2,9320.0,1074.0,8.677839851024208,69.42271880819366,13.948674580752757,111.58939664602205
2,294,0,../static/images/invador4.png,1,80,2,40.0,left,70,2,688.0,-1.138635992,1,0,2,9320.0,1076.0,8.661710037174721,17.323420074349443,13.830800513325999,27.661601026651997
2,295,0,../static/images/invador3.png,2,20,2,10.0,left,70,2,791.0,-0.724552679,1,0,2,9400.0,1080.0,8.703703703703704,17.40740740740741,13.988906268182502,27.977812536365004
2,296,0,../static/images/invador1.png,4,20,8,2.5,right,70,1,769.0,-0.812997658,0,0,2,9420.0,1084.0,8.690036900369003,69.52029520295203,13.789620288873127,110.31696231098502
2,297,0,../static/images/invador2.png,3,80,8,10.0,left,74,1,685.0,-1.150696671,2,0,2,9420.0,1086.0,8.67403314917127,69.39226519337016,13.673090318780993,109.38472255024794
2,298,0,../static/images/invador4.png,1,80,2,40.0,right,70,1,669.0,-1.215020293,2,0,2,9420.0,1088.0,8.658088235294118,17.316176470588236,13.557545091825016,27.115090183650032
2,299,0,../static/images/invador4.png,1,80,2,40.0,left,70,2,1211.0,0.963942387,0,0,2,9420.0,1090.0,8.642201834862385,17.28440366972477,13.442976286377348,26.885952572754697
2,300,0,../static/images/invador4.png,1,80,2,40.0,left,70,2,632.0,-1.363768668,1,0,2,9500.0,1094.0,8.683729433272395,17.36745886654479,13.609876593365465,27.21975318673093
2,301,0,../static/images/invador4.png,1,80,2,40.0,right,74,2,733.0,-0.957725807,1,0,2,9580.0,1098.0,8.724954462659381,17.449908925318763,13.772992161421367,27.545984322842735
2,302,0,../static/images/invador1.png,4,20,8,2.5,right,70,1,980.0,0.035270101,0,0,2,9660.0,1102.0,8.765880217785844,70.12704174228675,13.932408815724425,111.4592705257954
2,303,0,../static/images/invador4.png,1,80,2,40.0,left,70,2,1140.0,0.678506316,0,0,2,9660.0,1104.0,8.75,17.5,13.81467220306963,27.62934440613926
2,304,0,../static/images/invador3.png,2,20,2,10.0,right,70,1,673.0,-1.198939387,0,0,2,9740.0,1108.0,8.790613718411553,17.581227436823106,13.97314369388456,27.94628738776912
2,305,0,../static/images/invador4.png,1,80,2,40.0,left,70,2,1195.0,0.899618765,0,0,2,9740.0,1110.0,8.774774774774775,17.54954954954955,13.855062848826389,27.710125697652778
2,306,0,../static/images/invador2.png,3,80,8,10.0,left,74,1,1214.0,0.976003066,0,0,2,9820.0,1114.0,8.81508078994614,70.52064631956912,14.012618415325472,112.10094732260377
2,307,0,../static/images/invador4.png,1,80,2,40.0,right,74,2,1248.0,1.112690762,0,0,2,9820.0,1116.0,8.799283154121865,17.59856630824373,13.894203986889908,27.788407973779815
2,308,0,../static/images/invador1.png,4,20,8,2.5,left,74,1,781.0,-0.764754942,0,0,2,9900.0,1120.0,8.839285714285714,70.71428571428571,14.050871963714929,112.40697570971943
2,309,0,../static/images/invador2.png,3,80,8,10.0,right,70,1,1050.0,0.316685945,0,0,2,9900.0,1122.0,8.823529411764707,70.58823529411765,13.932134271494261,111.45707417195409
2,310,0,../static/images/invador4.png,1,80,2,40.0,right,74,2,1034.0,0.252362323,0,0,2,9900.0,1124.0,8.807829181494663,17.615658362989326,13.81439997889109,27.62879995778218
2,311,0,../static/images/invador3.png,2,20,2,10.0,left,74,1,799.0,-0.692390868,0,0,2,9980.0,1128.0,8.847517730496454,17.69503546099291,13.97287764283695,27.9457552856739
2,312,0,../static/images/invador4.png,1,80,2,40.0,left,70,2,661.0,-1.247182104,1,0,2,9980.0,1130.0,8.831858407079647,17.663716814159294,13.854799046058279,27.709598092116558
2,313,0,../static/images/invador4.png,1,80,2,40.0,left,70,2,1194.0,0.895598539,0,0,2,10060.0,1134.0,8.871252204585538,17.742504409171076,14.012360594718958,28.024721189437916
2,314,0,../static/images/invador4.png,1,80,2,40.0,right,74,2,1236.0,1.064448045,0,0,2,10140.0,1138.0,8.9103690685413,17.8207381370826,14.16634917615029,28.33269835230058
2,315,0,../static/images/invador3.png,2,20,2,10.0,right,70,1,705.0,-1.070292144,0,0,2,10220.0,1142.0,8.949211908931698,17.898423817863396,14.316845813260024,28.633691626520047
2,316,0,../static/images/invador4.png,1,80,2,40.0,left,74,1,613.0,-1.440152968,2,0,2,10220.0,1144.0,8.933566433566433,17.867132867132867,14.19586049390507,28.39172098781014
2,317,0,../static/images/invador4.png,1,80,2,40.0,left,70,2,1297.0,1.309681852,0,0,2,10220.0,1146.0,8.917975567190227,17.835951134380455,14.075897567868472,28.151795135736943
3,0,0,../static/images/invador3.png,4,20,8,2.5,left,70,2,1029.0,0.52253978,0,0,1,0.0,2.0,0.0,0.0,7.738791955975016,61.910335647800125
3,1,0,../static/images/invador2.png,1,80,2,40.0,right,70,1,802.0,-0.460717063,2,0,1,20.0,12.0,1.6666666666666667,3.3333333333333335,7.676572772108301,15.353145544216602
3,2,0,../static/images/invador4.png,2,20,2,10.0,right,74,2,1461.0,2.39375985,0,0,1,20.0,14.0,1.4285714285714286,2.857142857142857,7.645739976608565,15.29147995321713
3,3,0,../static/images/invador2.png,1,80,2,40.0,left,70,2,1354.0,1.930286361,0,0,1,40.0,18.0,2.2222222222222223,4.444444444444445,7.676397599753845,15.35279519950769
3,4,0,../static/images/invador2.png,1,80,2,40.0,right,74,2,1059.0,0.652485618,0,0,1,120.0,22.0,5.454545454545454,10.909090909090908,8.152052701597372,16.304105403194743
3,5,0,../static/images/invador2.png,1,80,2,40.0,right,74,2,900.0,-0.036227325,0,0,1,200.0,26.0,7.6923076923076925,15.384615384615385,8.620377242258305,17.24075448451661
3,6,0,../static/images/invador1.png,3,80,8,10.0,left,70,2,1025.0,0.505213668,0,0,1,280.0,30.0,9.333333333333334,74.66666666666667,9.081484196720082,72.65187357376065
3,7,0,../static/images/invador2.png,1,80,2,40.0,left,74,1,716.0,-0.833228466,2,0,1,360.0,40.0,9.0,18.0,9.428176608380548,18.856353216761097
3,8,0,../static/images/invador2.png,1,80,2,40.0,left,70,2,832.0,-0.330771225,0,0,1,360.0,42.0,8.571428571428571,17.142857142857142,9.390308532361287,18.780617064722573
3,9,0,../static/images/invador1.png,3,80,8,10.0,right,70,1,1213.0,1.319540921,0,0,1,440.0,46.0,9.565217391304348,76.52173913043478,9.8395496865686,78.7163974925488
3,10,0,../static/images/invador3.png,4,20,8,2.5,right,74,2,632.0,-1.197076813,1,0,1,440.0,48.0,9.166666666666666,73.33333333333333,9.800029339103421,78.40023471282737
3,11,0,../static/images/invador2.png,1,80,2,40.0,right,74,2,670.0,-1.032478751,1,0,1,460.0,58.0,7.931034482758621,15.862068965517242,9.681687491527182,19.363374983054364
3,12,0,../static/images/invador2.png,1,80,2,40.0,right,74,2,818.0,-0.391412616,0,0,1,540.0,62.0,8.709677419354838,17.419354838709676,10.126438057324517,20.252876114649034
3,13,0,../static/images/invador4.png,2,20,2,10.0,left,74,1,834.0,-0.322108169,2,0,1,620.0,66.0,9.393939393939394,18.78787878787879,10.5643343473642,21.1286686947284
3,14,0,../static/images/invador1.png,3,80,8,10.0,right,74,0,NaN,NaN,0,1,1,620.0,68.0,9.117647058823529,72.94117647058823,10.521902917324665,84.17522333859732
3,15,0,../static/images/invador3.png,4,20,8,2.5,right,70,1,1166.0,1.115959108,0,0,1,620.0,78.0,7.948717948717949,63.58974358974359,10.312288492529293,82.49830794023434
3,16,0,../static/images/invador2.png,1,80,2,40.0,left,70,2,824.0,-0.365423448,0,0,1,620.0,80.0,7.75,15.5,10.27086939944394,20.54173879888788
3,17,0,../static/images/invador2.png,1,80,2,40.0,right,74,2,1047.0,0.600507283,0,0,1,700.0,84.0,8.333333333333334,16.666666666666668,10.706539785070978,21.413079570141957
3,18,0,../static/images/invador2.png,1,80,2,40.0,left,70,2,775.0,-0.577668317,0,0,1,780.0,88.0,8.863636363636363,17.727272727272727,11.135495834186319,22.270991668372638
3,19,0,../static/images/invador2.png,1,80,2,40.0,left,70,2,720.0,-0.815902354,0,0,1,860.0,92.0,9.347826086956522,18.695652173913043,11.55784102482354,23.11568204964708
3,20,0,../static/images/invador4.png,2,20,2,10.0,right,70,1,1236.0,1.419166064,0,0,1,940.0,96.0,9.791666666666666,19.583333333333332,11.973677240263944,23.94735448052789
3,21,0,../static/images/invador2.png,1,80,2,40.0,left,70,2,945.0,0.158691433,0,0,1,940.0,98.0,9.591836734693878,19.183673469387756,11.925585213693147,23.851170427386293
3,22,0,../static/images/invador3.png,4,20,8,2.5,left,74,1,990.0,0.35361019,0,0,1,1020.0,102.0,10.0,80.0,12.335753937571694,98.68603150057355
3,23,0,../static/images/invador4.png,2,20,2,10.0,left,74,1,223.0,-2.968671741,0,0,1,1020.0,104.0,9.807692307692308,19.615384615384617,12.286207637447484,24.57241527489497
3,24,0,../static/images/invador2.png,1,80,2,40.0,right,74,2,777.0,-0.569005261,0,0,1,1020.0,106.0,9.622641509433961,19.245283018867923,12.23686033901125,24.4737206780225
3,25,0,../static/images/invador2.png,1,80,2,40.0,right,74,2,771.0,-0.594994429,0,0,1,1100.0,110.0,10.0,20.0,12.642231844607222,25.284463689214444
3,26,0,../static/images/invador1.png,3,80,8,10.0,left,70,2,707.0,-0.872212217,1,0,1,1180.0,114.0,10.350877192982455,82.80701754385964,13.041355965045476,104.3308477203638
3,27,0,../static/images/invador2.png,1,80,2,40.0,right,74,0,NaN,NaN,0,1,1,1260.0,124.0,10.161290322580646,20.322580645161292,13.280230347882267,26.560460695764533
3,28,0,../static/images/invador3.png,4,20,8,2.5,right,70,1,953.0,0.193343656,0,0,1,1260.0,134.0,9.402985074626866,75.22388059701493,13.015665290839413,104.1253223267153
3,29,0,../static/images/invador2.png,1,80,2,40.0,right,74,2,811.0,-0.421733311,0,0,1,1260.0,136.0,9.264705882352942,18.529411764705884,12.963388140850872,25.926776281701745
3,30,0,../static/images/invador4.png,2,20,2,10.0,left,74,1,896.0,-0.053553436,0,0,1,1340.0,140.0,9.571428571428571,19.142857142857142,13.357562759287227,26.715125518574453
3,31,0,../static/images/invador1.png,3,80,8,10.0,right,70,1,841.0,-0.291787473,0,0,1,1340.0,142.0,9.43661971830986,75.49295774647888,13.303912385199927,106.43129908159942
3,32,0,../static/images/invador2.png,1,80,2,40.0,left,70,2,836.0,-0.313445113,0,0,1,1340.0,144.0,9.305555555555555,18.61111111111111,13.25047749672865,26.5009549934573
3,33,0,../static/images/invador2.png,1,80,2,40.0,left,70,2,917.0,0.03740865,1,0,1,1420.0,148.0,9.594594594594595,19.18918918918919,13.64022763599937,27.28045527199874
3,34,0,../static/images/invador2.png,1,80,2,40.0,left,74,1,644.0,-1.145098478,2,0,1,1500.0,152.0,9.868421052631579,19.736842105263158,14.02397113888424,28.04794227776848
3,35,0,../static/images/invador2.png,1,80,2,40.0,right,70,1,699.0,-0.906864441,2,0,1,1500.0,154.0,9.74025974025974,19.48051948051948,13.96764414934661,27.93528829869322
3,36,0,../static/images/invador2.png,1,80,2,40.0,right,74,2,890.0,-0.079542604,0,0,1,1500.0,156.0,9.615384615384615,19.23076923076923,13.911543395995501,27.823086791991003
3,37,0,../static/images/invador2.png,1,80,2,40.0,left,70,2,666.0,-1.049804863,0,0,1,1580.0,160.0,9.875,19.75,14.29110551457325,28.5822110291465
3,38,0,../static/images/invador2.png,1,80,2,40.0,left,70,2,600.0,-1.335685707,0,0,1,1660.0,164.0,10.121951219512194,20.24390243902439,14.664818009501328,29.329636019002656
3,39,0,../static/images/invador1.png,3,80,8,10.0,right,74,2,492.0,-1.803490725,1,0,1,1740.0,168.0,10.357142857142858,82.85714285714286,15.032771032286352,120.26216825829081
3,40,0,../static/images/invador3.png,4,20,8,2.5,left,74,1,926.0,0.076392402,0,0,1,1820.0,178.0,10.224719101123595,81.79775280898876,15.217423849456013,121.7393907956481
3,41,0,../static/images/invador4.png,2,20,2,10.0,right,74,2,741.0,-0.724940267,0,0,1,1820.0,180.0,10.11111111111111,20.22222222222222,15.156303381831734,30.312606763663467
3,42,0,../static/images/invador2.png,1,80,2,40.0,right,74,2,934.0,0.111044625,0,0,1,1840.0,184.0,10.0,20.0,15.071211916311002,30.142423832622004
3,43,0,../static/images/invador3.png,4,20,8,2.5,right,74,2,702.0,-0.893869857,1,0,1,1920.0,188.0,10.212765957446809,81.70212765957447,15.432901797196456,123.46321437757165
3,44,0,../static/images/invador2.png,1,80,2,40.0,right,74,2,1249.0,1.475475927,0,0,1,1940.0,198.0,9.797979797979798,19.595959595959595,15.16119003246667,30.32238006493334
3,45,0,../static/images/invador2.png,1,80,2,40.0,right,74,2,757.0,-0.65563582,0,0,1,2020.0,202.0,10.0,20.0,15.521493215126842,31.042986430253684
3,46,0,../static/images/invador1.png,3,80,8,10.0,right,74,2,1467.0,2.419749018,0,0,1,2100.0,206.0,10.194174757281553,81.55339805825243,15.876243583332725,127.0099486666618
3,47,0,../static/images/invador4.png,2,20,2,10.0,right,70,1,992.0,0.362273246,0,0,1,2180.0,216.0,10.092592592592593,20.185185185185187,16.037930619502074,32.07586123900415
3,48,0,../static/images/invador2.png,1,80,2,40.0,left,70,2,1368.0,1.990927752,0,0,1,2180.0,218.0,10.0,20.0,15.973514603434756,31.947029206869512
3,49,0,../static/images/invador2.png,1,80,2,40.0,right,70,1,710.0,-0.859217633,2,0,1,2260.0,222.0,10.18018018018018,20.36036036036036,16.321298641562418,32.642597283124836
3,50,0,../static/images/invador2.png,1,80,2,40.0,right,70,1,644.0,-1.145098478,2,0,1,2260.0,224.0,10.089285714285714,20.178571428571427,16.255744483705175,32.51148896741035
3,51,0,../static/images/invador2.png,1,80,2,40.0,left,70,2,1273.0,1.579432598,0,0,1,2260.0,226.0,10.0,20.0,16.190453622764846,32.38090724552969
3,52,0,../static/images/invador2.png,1,80,2,40.0,right,74,2,1096.0,0.812752152,0,0,1,2340.0,230.0,10.173913043478262,20.347826086956523,16.53489430401916,33.06978860803832
3,53,0,../static/images/invador1.png,3,80,8,10.0,left,74,1,639.0,-1.166756117,2,0,1,2420.0,234.0,10.341880341880342,82.73504273504274,16.874026635845663,134.9922130867653
3,54,0,../static/images/invador4.png,2,20,2,10.0,right,74,0,NaN,NaN,0,1,1,2420.0,236.0,10.254237288135593,20.508474576271187,16.806252457450526,33.61250491490105
3,55,0,../static/images/invador3.png,4,20,8,2.5,right,70,1,1008.0,0.431577693,0,0,1,2420.0,246.0,9.83739837398374,78.69918699186992,16.47144296818658,131.77154374549264
3,56,0,../static/images/invador4.png,2,20,2,10.0,right,70,1,732.0,-0.763924019,2,0,1,2420.0,248.0,9.758064516129032,19.516129032258064,16.405285758752065,32.81057151750413
3,57,0,../static/images/invador2.png,1,80,2,40.0,left,70,2,857.0,-0.222483026,0,0,1,2420.0,250.0,9.68,19.36,16.339394268378634,32.67878853675727
3,58,0,../static/images/invador2.png,1,80,2,40.0,left,70,2,960.0,0.223664352,0,0,1,2500.0,254.0,9.84251968503937,19.68503937007874,16.681539550065036,33.36307910013007
3,59,0,../static/images/invador2.png,1,80,2,40.0,right,74,2,766.0,-0.616652069,0,0,1,2580.0,258.0,10.0,20.0,17.01841185788652,34.03682371577304
3,60,0,../static/images/invador1.png,3,80,8,10.0,right,70,1,865.0,-0.187830803,0,0,1,2660.0,262.0,10.15267175572519,81.22137404580153,17.35009245630841,138.80073965046728
3,61,0,../static/images/invador3.png,4,20,8,2.5,left,74,1,895.0,-0.057884964,0,0,1,2660.0,264.0,10.075757575757576,80.60606060606061,17.28040616940828,138.24324935526624
3,62,0,../static/images/invador2.png,1,80,2,40.0,right,74,0,NaN,NaN,0,1,1,2660.0,266.0,10.0,20.0,17.21099977603576,34.42199955207152
3,63,0,../static/images/invador4.png,2,20,2,10.0,right,70,1,808.0,-0.434727895,2,0,1,2660.0,276.0,9.63768115942029,19.27536231884058,16.86812702321204,33.73625404642408
3,64,0,../static/images/invador2.png,1,80,2,40.0,right,74,2,1263.0,1.536117318,0,0,1,2660.0,278.0,9.568345323741006,19.136690647482013,16.80037654048882,33.60075308097764
3,65,0,../static/images/invador2.png,1,80,2,40.0,left,74,1,840.0,-0.296119001,2,0,1,2740.0,282.0,9.71631205673759,19.43262411347518,17.13541739138767,34.27083478277534
3,66,0,../static/images/invador3.png,4,20,8,2.5,right,70,1,938.0,0.128370737,0,0,1,2740.0,284.0,9.647887323943662,77.1830985915493,17.066593342438264,136.5327467395061
3,67,0,../static/images/invador2.png,1,80,2,40.0,left,70,2,907.0,-0.005906629,0,0,1,2740.0,286.0,9.58041958041958,19.16083916083916,16.9980457238556,33.9960914477112
3,68,0,../static/images/invador1.png,3,80,8,10.0,left,74,1,1054.0,0.630827978,0,0,1,2820.0,290.0,9.724137931034482,77.79310344827586,17.330040195062598,138.64032156050078
3,69,0,../static/images/invador2.png,1,80,2,40.0,left,70,2,837.0,-0.309113585,0,0,1,2820.0,292.0,9.657534246575343,19.315068493150687,17.26043444765433,34.52086889530866
3,70,0,../static/images/invador4.png,2,20,2,10.0,left,74,1,979.0,0.305963383,0,0,1,2900.0,296.0,9.797297297297296,19.594594594594593,17.588385113620987,35.176770227241974
3,71,0,../static/images/invador2.png,1,80,2,40.0,left,70,2,677.0,-1.002158056,1,0,1,2900.0,298.0,9.731543624161073,19.463087248322147,17.517741729199592,35.035483458399185
3,72,0,../static/images/invador1.png,3,80,8,10.0,right,70,1,1266.0,1.549111902,0,0,1,2980.0,302.0,9.867549668874172,78.94039735099338,17.84172690260077,142.73381522080615
3,73,0,../static/images/invador2.png,1,80,2,40.0,left,70,2,935.0,0.115376153,0,0,1,2980.0,304.0,9.802631578947368,19.605263157894736,17.770065976132546,35.54013195226509
3,74,0,../static/images/invador2.png,1,80,2,40.0,right,74,2,728.0,-0.781250131,0,0,1,3060.0,308.0,9.935064935064934,19.87012987012987,18.0901624530332,36.1803249060664
3,75,0,../static/images/invador3.png,4,20,8,2.5,left,70,2,1450.0,2.346113043,0,0,1,3140.0,312.0,10.064102564102564,80.51282051282051,18.405325761343512,147.2426060907481
3,76,0,../static/images/invador2.png,1,80,2,40.0,right,74,2,1238.0,1.42782912,0,0,1,3160.0,322.0,9.813664596273291,19.627329192546583,18.052681857546474,36.10536371509295
3,77,0,../static/images/invador2.png,1,80,2,40.0,right,74,0,NaN,NaN,1,1,1,3240.0,326.0,9.938650306748466,19.87730061349693,18.36842279825747,36.73684559651494
3,78,0,../static/images/invador2.png,1,80,2,40.0,left,70,2,1053.0,0.62649645,0,0,1,3240.0,336.0,9.642857142857142,19.285714285714285,18.00249218575245,36.0049843715049
3,79,0,../static/images/invador1.png,3,80,8,10.0,left,70,2,685.0,-0.967505832,1,0,1,3320.0,340.0,9.764705882352942,78.11764705882354,18.319006624862585,146.55205299890068
3,80,0,../static/images/invador4.png,2,20,2,10.0,left,74,1,1130.0,0.960024102,0,0,1,3400.0,350.0,9.714285714285714,19.428571428571427,18.414182947698293,36.82836589539659
3,81,0,../static/images/invador3.png,4,20,8,2.5,right,74,2,571.0,-1.461300017,1,0,1,3400.0,352.0,9.659090909090908,77.27272727272727,18.340222763384798,146.72178210707838
3,82,0,../static/images/invador2.png,1,80,2,40.0,right,74,2,1297.0,1.683389268,0,0,1,3420.0,362.0,9.447513812154696,18.895027624309392,17.98935146166204,35.97870292332408
3,83,0,../static/images/invador2.png,1,80,2,40.0,left,70,2,985.0,0.33195255,0,0,1,3500.0,366.0,9.562841530054644,19.12568306010929,18.306068419112787,36.612136838225574
3,84,0,../static/images/invador2.png,1,80,2,40.0,right,74,2,781.0,-0.55167915,0,0,1,3580.0,370.0,9.675675675675675,19.35135135135135,18.61790429145552,37.23580858291104
3,85,0,../static/images/invador2.png,1,80,2,40.0,left,70,2,871.0,-0.161841635,0,0,1,3660.0,374.0,9.786096256684491,19.572192513368982,18.92493430355987,37.84986860711974
3,86,0,../static/images/invador2.png,1,80,2,40.0,left,70,2,1065.0,0.678474786,0,0,1,3740.0,378.0,9.894179894179894,19.788359788359788,19.22723252096697,38.45446504193394
3,87,0,../static/images/invador2.png,1,80,2,40.0,right,74,2,870.0,-0.166173163,0,0,1,3820.0,382.0,10.0,20.0,19.524871867756474,39.04974373551295
3,88,0,../static/images/invador4.png,2,20,2,10.0,left,70,2,876.0,-0.140183995,0,0,1,3900.0,386.0,10.103626943005182,20.207253886010363,19.81792414413817,39.63584828827634
3,89,0,../static/images/invador3.png,4,20,8,2.5,right,70,1,1084.0,0.760773817,0,0,1,3920.0,390.0,10.051282051282051,80.41025641025641,19.66099008494886,157.28792067959088
3,90,0,../static/images/invador1.png,3,80,8,10.0,left,74,1,928.0,0.085055458,0,0,1,3920.0,392.0,10.0,80.0,19.58202212559933,156.65617700479464
3,91,0,../static/images/invador2.png,1,80,2,40.0,right,70,1,652.0,-1.110446254,2,0,1,3920.0,394.0,9.949238578680204,19.898477157360407,19.503371339422507,39.006742678845015
3,92,0,../static/images/invador2.png,1,80,2,40.0,left,70,2,1232.0,1.401839952,0,0,1,3920.0,396.0,9.8989898989899,19.7979797979798,19.425036452498915,38.85007290499783
3,93,0,../static/images/invador2.png,1,80,2,40.0,right,74,2,955.0,0.202006712,0,0,1,4000.0,400.0,10.0,20.0,19.71962734292448,39.43925468584896
3,94,0,../static/images/invador3.png,4,20,8,2.5,left,74,1,881.0,-0.118526355,0,0,1,4080.0,404.0,10.099009900990099,80.79207920792079,20.00967814424403,160.07742515395225
3,95,0,../static/images/invador4.png,2,20,2,10.0,right,70,1,944.0,0.154359905,0,0,1,4080.0,406.0,10.049261083743842,20.098522167487683,19.92930968652829,39.85861937305658
3,96,0,../static/images/invador2.png,1,80,2,40.0,left,70,2,1063.0,0.66981173,0,0,1,4080.0,408.0,10.0,20.0,19.849264027057927,39.698528054115855
3,97,0,../static/images/invador1.png,3,80,8,10.0,right,70,1,835.0,-0.317776641,0,0,1,4160.0,412.0,10.097087378640778,80.77669902912622,20.13731693191665,161.0985354553332
3,98,0,../static/images/invador2.png,1,80,2,40.0,left,70,2,949.0,0.176017545,0,0,1,4160.0,414.0,10.048309178743962,20.096618357487923,20.05643581565458,40.11287163130916
3,99,0,../static/images/invador1.png,3,80,8,10.0,left,74,1,687.0,-0.958842776,0,0,1,4240.0,418.0,10.14354066985646,81.14832535885168,20.341295891369395,162.73036713095516
3,100,0,../static/images/invador2.png,1,80,2,40.0,right,74,2,1032.0,0.535534364,0,0,1,4240.0,420.0,10.095238095238095,20.19047619047619,20.259595497842618,40.519190995685236
3,101,0,../static/images/invador3.png,4,20,8,2.5,left,70,2,726.0,-0.789913186,1,0,1,4320.0,424.0,10.18867924528302,81.50943396226415,20.541324577013206,164.33059661610565
3,102,0,../static/images/invador2.png,1,80,2,40.0,left,70,2,1191.0,1.224247306,0,0,1,4340.0,434.0,10.0,20.0,20.13052243089193,40.26104486178386
3,103,0,../static/images/invador4.png,2,20,2,10.0,right,70,1,787.0,-0.525689982,2,0,1,4420.0,438.0,10.091324200913242,20.182648401826484,20.414240720334078,40.828481440668156
3,104,0,../static/images/invador2.png,1,80,2,40.0,left,70,2,750.0,-0.685956516,0,0,1,4420.0,440.0,10.045454545454545,20.09090909090909,20.332247345413,40.664494690826
3,105,0,../static/images/invador4.png,2,20,2,10.0,left,70,2,1212.0,1.315209393,0,0,1,4500.0,444.0,10.135135135135135,20.27027027027027,20.612856750240603,41.225713500481206
3,106,0,../static/images/invador1.png,3,80,8,10.0,right,70,1,796.0,-0.486706231,0,0,1,4520.0,448.0,10.089285714285714,80.71428571428571,20.443671582879666,163.54937266303733
3,107,0,../static/images/invador2.png,1,80,2,40.0,left,70,2,940.0,0.137033793,0,0,1,4520.0,450.0,10.044444444444444,20.08888888888889,20.361559999508906,40.72311999901781
3,108,0,../static/images/invador2.png,1,80,2,40.0,right,74,2,1309.0,1.735367603,0,0,1,4600.0,454.0,10.13215859030837,20.26431718061674,20.641717652208886,41.28343530441777
3,109,0,../static/images/invador3.png,4,20,8,2.5,left,74,1,1199.0,1.25889953,0,0,1,4680.0,458.0,10.218340611353712,81.7467248908297,20.917557653724362,167.3404612297949
3,110,0,../static/images/invador2.png,1,80,2,40.0,left,70,2,1202.0,1.271894114,0,0,1,4680.0,460.0,10.173913043478262,20.347826086956523,20.83354271676779,41.66708543353558
3,111,0,../static/images/invador2.png,1,80,2,40.0,right,74,2,1454.0,2.363439155,0,0,1,4760.0,464.0,10.258620689655173,20.517241379310345,21.106426405260127,42.21285281052025
3,112,0,../static/images/invador2.png,1,80,2,40.0,right,74,2,1495.0,2.5410318,0,0,1,4840.0,468.0,10.341880341880342,20.683760683760685,21.37510454530681,42.75020909061362
3,113,0,../static/images/invador2.png,1,80,2,40.0,left,70,2,1482.0,2.484721937,0,0,1,4920.0,472.0,10.423728813559322,20.847457627118644,21.639641950740526,43.27928390148105
3,114,0,../static/images/invador2.png,1,80,2,40.0,right,74,2,1009.0,0.435909221,0,0,1,5000.0,476.0,10.504201680672269,21.008403361344538,21.900102436515233,43.80020487303047
3,115,0,../static/images/invador3.png,4,20,8,2.5,left,74,1,1125.0,0.938366462,0,0,1,5080.0,480.0,10.583333333333334,84.66666666666667,22.156548834100366,177.25239067280293
3,116,0,../static/images/invador2.png,1,80,2,40.0,left,74,1,663.0,-1.062799447,2,0,1,5080.0,482.0,10.53941908713693,21.07883817427386,22.067557514736624,44.13511502947325
3,117,0,../static/images/invador1.png,3,80,8,10.0,right,70,1,1102.0,0.83874132,0,0,1,5080.0,484.0,10.49586776859504,83.96694214876032,21.978923627163425,175.8313890173074
3,118,0,../static/images/invador4.png,2,20,2,10.0,left,70,2,1316.0,1.765688299,0,0,1,5080.0,486.0,10.452674897119342,20.905349794238685,21.89064573576339,43.78129147152678
3,119,0,../static/images/invador2.png,1,80,2,40.0,left,70,2,1387.0,2.073226783,0,0,1,5100.0,490.0,10.408163265306122,20.816326530612244,21.701767916519792,43.403535833039584
3,120,0,../static/images/invador4.png,2,20,2,10.0,left,70,2,1040.0,0.570186587,0,0,1,5180.0,494.0,10.48582995951417,20.97165991902834,21.961270947635843,43.922541895271685
3,121,0,../static/images/invador2.png,1,80,2,40.0,left,70,2,1256.0,1.505796623,0,0,1,5200.0,498.0,10.441767068273093,20.883534136546185,21.771304687556313,43.542609375112626
3,122,0,../static/images/invador3.png,4,20,8,2.5,right,74,2,788.0,-0.521358454,1,0,1,5280.0,502.0,10.51792828685259,84.14342629482071,22.029736052348284,176.23788841878627
3,123,0,../static/images/invador1.png,3,80,8,10.0,right,74,2,1029.0,0.52253978,1,0,1,5300.0,512.0,10.3515625,82.8125,21.57840794964609,172.6272635971687
3,124,0,../static/images/invador2.png,1,80,2,40.0,right,74,0,NaN,NaN,0,1,1,5380.0,522.0,10.306513409961687,20.613026819923373,21.584838412377334,43.16967682475467
3,125,0,../static/images/invador2.png,1,80,2,40.0,right,74,2,1044.0,0.587512699,0,0,1,5380.0,532.0,10.112781954887218,20.225563909774436,21.154831262181922,42.309662524363844
3,126,0,../static/images/invador1.png,3,80,8,10.0,left,74,1,1302.0,1.705046908,0,0,1,5460.0,536.0,10.186567164179104,81.49253731343283,21.422763410513554,171.38210728410843
3,127,0,../static/images/invador2.png,1,80,2,40.0,left,70,2,933.0,0.106713097,0,0,1,5460.0,538.0,10.148698884758364,20.297397769516728,21.33671932510144,42.67343865020288
3,128,0,../static/images/invador4.png,2,20,2,10.0,left,70,2,1118.0,0.908045767,0,0,1,5540.0,542.0,10.22140221402214,20.44280442804428,21.6018483045646,43.2036966091292
3,129,0,../static/images/invador2.png,1,80,2,40.0,left,70,2,1281.0,1.614084821,0,0,1,5560.0,546.0,10.183150183150182,20.366300366300365,21.41742128849871,42.83484257699742
3,130,0,../static/images/invador3.png,4,20,8,2.5,left,70,2,762.0,-0.633978181,1,0,1,5640.0,550.0,10.254545454545454,82.03636363636363,21.681306529215146,173.45045223372117
3,131,0,../static/images/invador2.png,1,80,2,40.0,left,70,2,1093.0,0.799757568,0,0,1,5660.0,560.0,10.107142857142858,20.214285714285715,21.23946534593005,42.4789306918601
3,132,0,../static/images/invador2.png,1,80,2,40.0,left,74,1,53.0,-3.705031491,2,0,1,5740.0,564.0,10.177304964539006,20.354609929078013,21.50609315562084,43.01218631124168
3,133,0,../static/images/invador1.png,3,80,8,10.0,left,70,2,1123.0,0.929703406,0,0,1,5740.0,566.0,10.141342756183745,81.13074204946996,21.41971437801389,171.35771502411112
3,134,0,../static/images/invador3.png,4,20,8,2.5,left,74,1,962.0,0.232327408,0,0,1,5820.0,576.0,10.104166666666666,80.83333333333333,21.430465694823607,171.44372555858885
3,135,0,../static/images/invador2.png,1,80,2,40.0,right,74,2,1185.0,1.198258139,0,0,1,5820.0,578.0,10.069204152249135,20.13840830449827,21.344390673346137,42.688781346692274
3,136,0,../static/images/invador2.png,1,80,2,40.0,left,74,1,608.0,-1.301033483,2,0,1,5900.0,582.0,10.137457044673539,20.274914089347078,21.60940142578421,43.21880285156842
3,137,0,../static/images/invador4.png,2,20,2,10.0,left,70,2,1089.0,0.782431456,0,0,1,5900.0,584.0,10.102739726027398,20.205479452054796,21.522607712650437,43.045215425300874
3,138,0,../static/images/invador2.png,1,80,2,40.0,left,70,2,1078.0,0.734784649,0,0,1,5920.0,588.0,10.068027210884354,20.13605442176871,21.339401913396728,42.678803826793455
3,139,0,../static/images/invador2.png,1,80,2,40.0,left,74,1,633.0,-1.192745285,2,0,1,6000.0,592.0,10.135135135135135,20.27027027027027,21.604489550135824,43.20897910027165
3,140,0,../static/images/invador2.png,1,80,2,40.0,left,70,2,982.0,0.318957967,0,0,1,6000.0,594.0,10.1010101010101,20.2020202020202,21.51771556544883,43.03543113089766
3,141,0,../static/images/invador2.png,1,80,2,40.0,right,74,2,948.0,0.171686017,0,0,1,6080.0,598.0,10.167224080267559,20.334448160535118,21.780055120371937,43.560110240743874
3,142,1,../static/images/invador3.png,4,20,8,2.5,left,74,1,1298.0,1.687720796,0,0,1,6160.0,602.0,10.232558139534884,81.86046511627907,22.038351627821097,176.30681302256878
3,143,1,../static/images/invador3.png,4,20,8,2.5,right,70,1,788.0,-0.521358454,0,0,1,6160.0,604.0,10.198675496688741,81.58940397350993,21.949835045087625,175.598680360701
3,144,1,../static/images/invador3.png,4,20,8,2.5,left,74,1,819.0,-0.387081088,0,0,1,6160.0,606.0,10.165016501650165,81.32013201320132,21.861673987374854,174.89339189899883
3,145,1,../static/images/invador4.png,2,20,2,10.0,right,74,2,750.0,-0.685956516,1,0,1,6160.0,608.0,10.131578947368421,20.263157894736842,21.77386702672391,43.54773405344782
3,146,1,../static/images/invador1.png,3,80,8,10.0,right,70,1,1003.0,0.409920053,0,0,1,6180.0,612.0,10.098039215686274,80.7843137254902,21.586788943188225,172.6943115455058
3,147,1,../static/images/invador2.png,1,80,2,40.0,right,74,2,843.0,-0.283124417,0,0,1,6180.0,614.0,10.06514657980456,20.13029315960912,21.500086052622326,43.00017210524465
3,148,1,../static/images/invador3.png,4,20,8,2.5,right,70,1,932.0,0.10238157,0,0,1,6260.0,618.0,10.129449838187702,81.03559870550161,21.762697304878,174.101578439024
3,149,1,../static/images/invador1.png,3,80,8,10.0,right,70,1,1220.0,1.349861617,0,0,1,6260.0,620.0,10.096774193548388,80.7741935483871,21.675287882021756,173.40230305617405
3,150,1,../static/images/invador3.png,4,20,8,2.5,left,74,1,959.0,0.219332824,0,0,1,6260.0,622.0,10.064308681672026,80.51446945337621,21.58822953730151,172.70583629841207
3,151,1,../static/images/invador3.png,4,20,8,2.5,right,70,1,833.0,-0.326439697,0,0,1,6260.0,624.0,10.032051282051283,80.25641025641026,21.5015208606192,172.0121668849536
3,152,1,../static/images/invador4.png,2,20,2,10.0,left,74,1,494.0,-1.794827669,2,0,1,6260.0,626.0,10.0,20.0,21.415160447540398,42.830320895080796
3,153,1,../static/images/invador3.png,4,20,8,2.5,right,70,1,799.0,-0.473711647,0,0,1,6260.0,628.0,9.968152866242038,79.7452229299363,21.329146899271553,170.63317519417242
3,154,1,../static/images/invador3.png,4,20,8,2.5,left,74,1,891.0,-0.075211076,0,0,1,6260.0,630.0,9.936507936507937,79.4920634920635,21.243478822637346,169.94783058109877
3,155,1,../static/images/invador2.png,1,80,2,40.0,left,70,2,803.0,-0.456385535,0,0,1,6260.0,632.0,9.905063291139241,19.810126582278482,21.15815483005811,42.31630966011622
3,156,1,../static/images/invador3.png,4,20,8,2.5,right,70,1,816.0,-0.400075672,0,0,1,6340.0,636.0,9.968553459119496,79.74842767295597,21.42603575720538,171.40828605764304
3,157,1,../static/images/invador3.png,4,20,8,2.5,right,70,1,848.0,-0.261466778,0,0,1,6340.0,638.0,9.93730407523511,79.49843260188088,21.339978528480575,170.7198282278446
3,158,1,../static/images/invador3.png,4,20,8,2.5,left,74,1,660.0,-1.075794031,0,0,1,6340.0,640.0,9.90625,79.25,21.25426694683205,170.0341355746564
3,159,1,../static/images/invador1.png,3,80,8,10.0,left,74,1,837.0,-0.309113585,0,0,1,6340.0,642.0,9.87538940809969,79.00311526479751,21.168899623975488,169.3511969918039
3,160,1,../static/images/invador4.png,2,20,2,10.0,left,70,2,729.0,-0.776918603,0,0,1,6340.0,644.0,9.84472049689441,19.68944099378882,21.083875177202582,42.167750354405165
3,161,1,../static/images/invador3.png,4,20,8,2.5,left,74,1,704.0,-0.885206801,1,0,1,6360.0,648.0,9.814814814814815,78.51851851851852,20.907430906799146,167.25944725439317
3,162,1,../static/images/invador4.png,2,20,2,10.0,right,74,0,NaN,NaN,0,1,1,6360.0,650.0,9.784615384615385,19.56923076923077,20.8234566437118,41.6469132874236
3,163,1,../static/images/invador3.png,4,20,8,2.5,right,70,1,1045.0,0.591844227,0,0,1,6360.0,660.0,9.636363636363637,77.0909090909091,20.40861752944512,163.26894023556096
3,164,1,../static/images/invador3.png,4,20,8,2.5,left,74,1,1005.0,0.418583109,0,0,1,6360.0,662.0,9.607250755287009,76.85800604229607,20.32664673995375,162.61317391963
3,165,1,../static/images/invador2.png,1,80,2,40.0,left,70,2,1120.0,0.916708822,0,0,1,6360.0,664.0,9.578313253012048,19.156626506024097,20.245005184440135,40.49001036888027
3,166,1,../static/images/invador1.png,3,80,8,10.0,left,74,1,990.0,0.35361019,0,0,1,6440.0,668.0,9.640718562874252,77.12574850299401,20.52695912230488,164.21567297843904
3,167,1,../static/images/invador3.png,4,20,8,2.5,left,74,1,831.0,-0.335102753,0,0,1,6440.0,670.0,9.611940298507463,76.8955223880597,20.44451301625753,163.55610413006025
3,168,1,../static/images/invador4.png,2,20,2,10.0,right,74,0,NaN,NaN,0,1,1,6440.0,672.0,9.583333333333334,19.166666666666668,20.36239805328704,40.72479610657408
3,169,1,../static/images/invador3.png,4,20,8,2.5,right,70,1,1377.0,2.029911503,0,0,1,6440.0,682.0,9.442815249266863,75.5425219941349,19.956744020082994,159.65395216066395
3,170,1,../static/images/invador1.png,3,80,8,10.0,right,70,1,899.0,-0.040558853,0,0,1,6440.0,684.0,9.415204678362572,75.32163742690058,19.876588171180284,159.01270536944227
3,171,1,../static/images/invador3.png,4,20,8,2.5,right,70,1,789.0,-0.517026926,0,0,1,6440.0,686.0,9.387755102040817,75.10204081632654,19.79675426658406,158.37403413267248
3,172,1,../static/images/invador2.png,1,80,2,40.0,left,70,2,1082.0,0.752110761,0,0,1,6440.0,688.0,9.36046511627907,18.72093023255814,19.71724101321169,39.43448202642338
3,173,1,../static/images/invador3.png,4,20,8,2.5,right,74,0,NaN,NaN,1,1,1,6520.0,692.0,9.421965317919074,75.3757225433526,20.00732859146456,160.05862873171648
3,174,1,../static/images/invador3.png,4,20,8,2.5,left,74,1,1147.0,1.033660077,0,0,1,6520.0,702.0,9.287749287749287,74.3019943019943,19.608748153368467,156.86998522694773
3,175,1,../static/images/invador3.png,4,20,8,2.5,left,74,1,1000.0,0.39692547,0,0,1,6520.0,704.0,9.261363636363637,74.0909090909091,19.529990022654808,156.23992018123846
3,176,1,../static/images/invador3.png,4,20,8,2.5,right,70,1,791.0,-0.50836387,0,0,1,6520.0,706.0,9.23512747875354,73.88101983002832,19.451548222341486,155.6123857787319
3,177,1,../static/images/invador4.png,2,20,2,10.0,right,74,2,766.0,-0.616652069,0,0,1,6520.0,708.0,9.209039548022599,18.418079096045197,19.373421481894006,38.74684296378801
3,178,1,../static/images/invador3.png,4,20,8,2.5,left,74,1,967.0,0.253985047,0,0,1,6540.0,712.0,9.185393258426966,73.48314606741573,19.2233378778954,153.7867030231632
3,179,1,../static/images/invador2.png,1,80,2,40.0,right,74,2,963.0,0.236658936,0,0,1,6540.0,714.0,9.159663865546218,18.319327731092436,19.14612773956844,38.29225547913688
3,180,1,../static/images/invador3.png,4,20,8,2.5,right,70,1,1325.0,1.80467205,0,0,1,6620.0,718.0,9.220055710306406,73.76044568245125,19.44501703313647,155.56013626509176
3,181,1,../static/images/invador1.png,3,80,8,10.0,left,74,1,956.0,0.20633824,0,0,1,6620.0,720.0,9.194444444444445,73.55555555555556,19.366916525075123,154.93533220060098
3,182,1,../static/images/invador1.png,3,80,8,10.0,right,70,1,687.0,-0.958842776,2,0,1,6620.0,722.0,9.168975069252078,73.35180055401662,19.289129706086356,154.31303764869085
3,183,1,../static/images/invador3.png,4,20,8,2.5,right,70,1,1030.0,0.526871308,0,0,1,6620.0,724.0,9.143646408839778,73.14917127071823,19.211655316244507,153.69324252995605
3,184,1,../static/images/invador4.png,2,20,2,10.0,left,70,2,1042.0,0.578849643,0,0,1,6620.0,726.0,9.118457300275482,18.236914600550964,19.134492100684383,38.26898420136877
3,185,1,../static/images/invador3.png,4,20,8,2.5,right,70,1,708.0,-0.867880689,2,0,1,6640.0,730.0,9.095890410958905,72.76712328767124,18.98809075814053,151.90472606512424
3,186,1,../static/images/invador3.png,4,20,8,2.5,right,70,1,1221.0,1.354193145,0,0,1,6640.0,732.0,9.07103825136612,72.56830601092896,18.91182548499633,151.29460387997065
3,187,1,../static/images/invador2.png,1,80,2,40.0,right,74,2,887.0,-0.092537188,0,0,1,6640.0,734.0,9.046321525885558,18.092643051771116,18.835866529741686,37.67173305948337
3,188,1,../static/images/invador3.png,4,20,8,2.5,left,74,1,870.0,-0.166173163,0,0,1,6720.0,738.0,9.105691056910569,72.84552845528455,19.139537415628197,153.11629932502558
3,189,1,../static/images/invador3.png,4,20,8,2.5,left,74,1,942.0,0.145696849,0,0,1,6720.0,740.0,9.08108108108108,72.64864864864865,19.062663860121795,152.50131088097436
3,190,1,../static/images/invador3.png,4,20,8,2.5,right,70,1,853.0,-0.239809138,0,0,1,6720.0,742.0,9.056603773584905,72.45283018867924,18.986099065658458,151.88879252526766
3,191,1,../static/images/invador3.png,4,20,8,2.5,left,74,1,645.0,-1.14076695,0,0,1,6720.0,744.0,9.03225806451613,72.25806451612904,18.90984179210585,151.2787343368468
3,192,1,../static/images/invador3.png,4,20,8,2.5,left,74,1,778.0,-0.564673733,0,0,1,6720.0,746.0,9.00804289544236,72.06434316353888,18.833890804312606,150.67112643450085
3,193,1,../static/images/invador1.png,3,80,8,10.0,right,70,1,904.0,-0.018901213,0,0,1,6720.0,748.0,8.983957219251337,71.8716577540107,18.75824487208832,150.06595897670655
3,194,1,../static/images/invador2.png,1,80,2,40.0,right,74,2,1026.0,0.509545196,0,0,1,6720.0,750.0,8.96,17.92,18.682902770183613,37.36580554036723
3,195,1,../static/images/invador4.png,2,20,2,10.0,left,70,2,1190.0,1.219915778,0,0,1,6800.0,754.0,9.018567639257295,18.03713527851459,18.98893105788041,37.97786211576082
3,196,1,../static/images/invador3.png,4,20,8,2.5,right,70,1,1088.0,0.778099928,0,0,1,6820.0,758.0,8.997361477572559,71.97889182058047,18.84477303013743,150.75818424109943
3,197,1,../static/images/invador1.png,3,80,8,10.0,right,70,1,714.0,-0.841891522,0,0,1,6820.0,760.0,8.973684210526315,71.78947368421052,18.76908338967857,150.15266711742856
3,198,1,../static/images/invador3.png,4,20,8,2.5,right,70,1,654.0,-1.101783198,2,0,1,6820.0,762.0,8.950131233595801,71.60104986876641,18.69369775509251,149.5495820407401
3,199,1,../static/images/invador4.png,2,20,2,10.0,left,70,0,NaN,NaN,1,1,1,6820.0,764.0,8.926701570680628,17.853403141361255,18.618614905345964,37.23722981069193
3,200,1,../static/images/invador3.png,4,20,8,2.5,right,70,1,1078.0,0.734784649,0,0,1,6820.0,774.0,8.811369509043928,70.49095607235142,18.247700035237756,145.98160028190205
3,201,1,../static/images/invador2.png,1,80,2,40.0,left,70,2,958.0,0.215001296,0,0,1,6820.0,776.0,8.788659793814434,17.577319587628867,18.174408526093046,36.34881705218609
3,202,1,../static/images/invador3.png,4,20,8,2.5,right,70,1,822.0,-0.374086504,0,0,1,6900.0,780.0,8.846153846153847,70.76923076923077,18.488273475591342,147.90618780473073
3,203,1,../static/images/invador2.png,1,80,2,40.0,left,70,2,1032.0,0.535534364,0,0,1,6900.0,782.0,8.823529411764707,17.647058823529413,18.414015708207533,36.828031416415065
3,204,1,../static/images/invador4.png,2,20,2,10.0,left,70,2,1190.0,1.219915778,0,0,1,6980.0,786.0,8.880407124681934,17.760814249363868,18.724187950318743,37.44837590063749
3,205,1,../static/images/invador3.png,4,20,8,2.5,right,70,1,767.0,-0.612320541,0,0,1,7000.0,790.0,8.860759493670885,70.88607594936708,18.584110012414236,148.6728800993139
3,206,1,../static/images/invador3.png,4,20,8,2.5,right,70,1,768.0,-0.607989013,0,0,1,7000.0,792.0,8.83838383838384,70.70707070707071,18.509467319565772,148.07573855652618
3,207,1,../static/images/invador1.png,3,80,8,10.0,left,74,1,1070.0,0.700132425,0,0,1,7000.0,794.0,8.816120906801007,70.52896725440806,18.435124427546725,147.4809954203738
3,208,1,../static/images/invador3.png,4,20,8,2.5,left,74,1,801.0,-0.465048591,0,0,1,7000.0,796.0,8.793969849246231,70.35175879396985,18.36108013221327,146.88864105770617
3,209,1,../static/images/invador3.png,4,20,8,2.5,right,70,1,697.0,-0.915527497,2,0,1,7000.0,798.0,8.771929824561404,70.17543859649123,18.28733323425801,146.29866587406408
3,210,1,../static/images/invador2.png,1,80,2,40.0,right,74,2,889.0,-0.083874132,0,0,1,7000.0,800.0,8.75,17.5,18.213882539190536,36.42776507838107
3,211,1,../static/images/invador4.png,2,20,2,10.0,left,74,1,682.0,-0.980500416,2,0,1,7080.0,804.0,8.805970149253731,17.611940298507463,18.527139134721825,37.05427826944365
3,212,1,../static/images/invador3.png,4,20,8,2.5,right,70,1,953.0,0.193343656,0,0,1,7080.0,806.0,8.784119106699752,70.27295285359801,18.452725264223318,147.62180211378654
3,213,1,../static/images/invador3.png,4,20,8,2.5,left,74,1,774.0,-0.581999845,0,0,1,7080.0,808.0,8.762376237623762,70.0990099009901,18.378610275494,147.028882203952
3,214,1,../static/images/invador3.png,4,20,8,2.5,right,70,1,631.0,-1.201408341,0,0,1,7080.0,810.0,8.74074074074074,69.92592592592592,18.304792968081436,146.4383437446515
3,215,1,../static/images/invador3.png,4,20,8,2.5,right,70,1,738.0,-0.737934851,0,0,1,7080.0,812.0,8.719211822660098,69.75369458128078,18.231272146354783,145.85017717083826
3,216,1,../static/images/invador1.png,3,80,8,10.0,left,74,1,845.0,-0.274461361,0,0,1,7080.0,814.0,8.697788697788697,69.58230958230958,18.158046619485425,145.2643729558834
3,217,1,../static/images/invador2.png,1,80,2,40.0,left,74,1,596.0,-1.353011819,2,0,1,7080.0,816.0,8.676470588235293,17.352941176470587,18.08511520142769,36.17023040285538
3,218,1,../static/images/invador3.png,4,20,8,2.5,left,70,2,842.0,-0.287455945,1,0,1,7080.0,818.0,8.65525672371638,69.24205378973105,18.01247671089963,144.09981368719704
3,219,1,../static/images/invador1.png,3,80,8,10.0,right,70,1,1077.0,0.730453121,0,0,1,7100.0,828.0,8.57487922705314,68.59903381642512,17.670529166157184,141.36423332925747
3,220,1,../static/images/invador4.png,2,20,2,10.0,right,74,2,892.0,-0.070879548,0,0,1,7100.0,830.0,8.55421686746988,17.10843373493976,17.599555851850596,35.19911170370119
3,221,1,../static/images/invador3.png,4,20,8,2.5,right,70,1,634.0,-1.188413757,2,0,1,7120.0,834.0,8.537170263788969,68.29736211031175,17.476810187632996,139.81448150106397
3,222,1,../static/images/invador3.png,4,20,8,2.5,right,70,1,966.0,0.24965352,0,0,1,7120.0,836.0,8.516746411483254,68.13397129186603,17.406614941590274,139.2529195327222
3,223,1,../static/images/invador3.png,4,20,8,2.5,right,70,1,642.0,-1.153761533,0,0,1,7120.0,838.0,8.496420047732697,67.97136038186157,17.336701633299015,138.69361306639212
3,224,1,../static/images/invador3.png,4,20,8,2.5,left,74,1,588.0,-1.387664042,2,0,1,7120.0,840.0,8.476190476190476,67.80952380952381,17.267069130362078,138.13655304289662
3,225,1,../static/images/invador1.png,3,80,8,10.0,right,70,1,963.0,0.236658936,0,0,1,7120.0,842.0,8.45605700712589,67.64845605700712,17.197716304930573,137.58173043944458
3,226,1,../static/images/invador2.png,1,80,2,40.0,left,70,2,1062.0,0.665480202,0,0,1,7120.0,844.0,8.436018957345972,16.872037914691944,17.1286420336856,34.2572840673712
3,227,1,../static/images/invador3.png,4,20,8,2.5,right,70,1,775.0,-0.577668317,0,0,1,7200.0,848.0,8.49056603773585,67.9245283018868,17.458623819155136,139.6689905532411
3,228,1,../static/images/invador4.png,2,20,2,10.0,right,74,2,1027.0,0.513876724,0,0,1,7200.0,850.0,8.470588235294118,16.941176470588236,17.38850161828463,34.77700323656926
3,229,1,../static/images/invador3.png,4,20,8,2.5,left,70,2,1106.0,0.856067431,1,0,1,7220.0,854.0,8.454332552693208,67.63466042154566,17.26900861753265,138.1520689402612
3,230,1,../static/images/invador3.png,4,20,8,2.5,right,70,1,897.0,-0.049221908,0,0,1,7240.0,864.0,8.37962962962963,67.03703703703704,16.947303966754923,135.57843173403938
3,231,1,../static/images/invador1.png,3,80,8,10.0,left,70,2,973.0,0.279974215,1,0,1,7240.0,866.0,8.360277136258661,66.88221709006929,16.879235471478314,135.0338837718265
3,232,1,../static/images/invador4.png,2,20,2,10.0,left,70,2,680.0,-0.989163472,1,0,1,7320.0,876.0,8.356164383561644,16.71232876712329,17.013613388910283,34.027226777820566
3,233,1,../static/images/invador2.png,1,80,2,40.0,left,70,2,1157.0,1.076975356,0,0,1,7340.0,880.0,8.340909090909092,16.681818181818183,16.89989798013915,33.7997959602783
3,234,1,../static/images/invador3.png,4,20,8,2.5,left,70,2,600.0,-1.335685707,1,0,1,7420.0,884.0,8.393665158371041,67.14932126696833,17.233405055830907,137.86724044664726
3,235,1,../static/images/invador3.png,4,20,8,2.5,left,70,2,1126.0,0.94269799,0,0,1,7440.0,894.0,8.322147651006711,66.57718120805369,16.912669806606154,135.30135845284923
3,236,1,../static/images/invador3.png,4,20,8,2.5,left,74,1,919.0,0.046071706,0,0,1,7460.0,904.0,8.252212389380531,66.01769911504425,16.600667426617797,132.80533941294237
3,237,1,../static/images/invador3.png,4,20,8,2.5,right,70,1,670.0,-1.032478751,0,0,1,7460.0,906.0,8.233995584988962,65.8719646799117,16.5339911898232,132.2719295185856
3,238,1,../static/images/invador4.png,2,20,2,10.0,right,74,2,700.0,-0.902532913,0,0,1,7460.0,908.0,8.215859030837004,16.431718061674008,16.467582756752325,32.93516551350465
3,239,1,../static/images/invador3.png,4,20,8,2.5,left,74,1,755.0,-0.664298876,0,0,1,7480.0,912.0,8.201754385964913,65.6140350877193,16.36228250203103,130.89826001624823
3,240,1,../static/images/invador1.png,3,80,8,10.0,right,70,1,569.0,-1.469963073,2,0,1,7480.0,914.0,8.183807439824946,65.47045951859957,16.2965637333473,130.3725098667784
3,241,1,../static/images/invador2.png,1,80,2,40.0,right,74,2,1030.0,0.526871308,0,0,1,7480.0,916.0,8.16593886462882,16.33187772925764,16.231108922736453,32.46221784547291
3,242,1,../static/images/invador3.png,4,20,8,2.5,left,74,1,865.0,-0.187830803,0,0,1,7560.0,920.0,8.217391304347826,65.73913043478261,16.574923044614692,132.59938435691754
3,243,1,../static/images/invador3.png,4,20,8,2.5,right,70,1,679.0,-0.993495,0,0,1,7560.0,922.0,8.199566160520607,65.59652928416486,16.508350209597054,132.06680167677644
3,244,1,../static/images/invador3.png,4,20,8,2.5,left,74,1,686.0,-0.963174304,0,0,1,7560.0,924.0,8.181818181818182,65.45454545454545,16.442044762992044,131.53635810393635
3,245,1,../static/images/invador1.png,3,80,8,10.0,right,74,2,567.0,-1.478626129,1,0,1,7560.0,926.0,8.16414686825054,65.31317494600432,16.376005630839636,131.0080450467171
3,246,1,../static/images/invador3.png,4,20,8,2.5,right,74,2,1286.0,1.635742461,1,0,1,7640.0,936.0,8.162393162393162,65.2991452991453,16.524085317580624,132.192682540645
3,247,1,../static/images/invador4.png,2,20,2,10.0,left,70,2,1057.0,0.643822562,0,0,1,7660.0,946.0,8.09725158562368,16.19450317124736,16.222663182632854,32.44532636526571
3,248,1,../static/images/invador3.png,4,20,8,2.5,right,70,1,937.0,0.124039209,0,0,1,7680.0,950.0,8.08421052631579,64.67368421052632,16.121137507256844,128.96910005805475
3,249,1,../static/images/invador3.png,4,20,8,2.5,right,70,1,794.0,-0.495369286,0,0,1,7680.0,952.0,8.067226890756302,64.53781512605042,16.056387292448697,128.45109833958958
3,250,1,../static/images/invador2.png,1,80,2,40.0,left,70,2,901.0,-0.031895797,0,0,1,7680.0,954.0,8.050314465408805,16.10062893081761,15.991897145536868,31.983794291073735
3,251,1,../static/images/invador3.png,4,20,8,2.5,right,70,1,877.0,-0.135852467,0,0,1,7760.0,958.0,8.100208768267223,64.80167014613778,16.339397881017195,130.71518304813756
3,252,1,../static/images/invador3.png,4,20,8,2.5,left,74,1,701.0,-0.898201385,0,0,1,7760.0,960.0,8.083333333333334,64.66666666666667,16.273771027939652,130.19016822351722
3,253,1,../static/images/invador3.png,4,20,8,2.5,right,70,1,687.0,-0.958842776,0,0,1,7760.0,962.0,8.066528066528067,64.53222453222453,16.208407763757872,129.66726211006298
3,254,1,../static/images/invador4.png,2,20,2,10.0,right,74,2,1175.0,1.154942859,0,0,1,7760.0,964.0,8.049792531120332,16.099585062240664,16.14330702977251,32.28661405954502
3,255,1,../static/images/invador1.png,3,80,8,10.0,right,70,1,1105.0,0.851735903,0,0,1,7780.0,968.0,8.037190082644628,64.29752066115702,16.043004352176833,128.34403481741467
3,256,1,../static/images/invador2.png,1,80,2,40.0,left,70,2,869.0,-0.170504691,0,0,1,7780.0,970.0,8.02061855670103,16.04123711340206,15.978567957567344,31.95713591513469
3,257,1,../static/images/invador3.png,4,20,8,2.5,left,74,1,862.0,-0.200825386,0,0,1,7860.0,974.0,8.069815195071868,64.55852156057495,16.326274115900375,130.610192927203
3,258,1,../static/images/invador3.png,4,20,8,2.5,left,74,1,855.0,-0.231146082,0,0,1,7860.0,976.0,8.05327868852459,64.42622950819673,16.260699974153532,130.08559979322825
3,259,1,../static/images/invador3.png,4,20,8,2.5,right,70,1,850.0,-0.252803722,0,0,1,7860.0,978.0,8.036809815950921,64.29447852760737,16.19538920958848,129.56311367670784
3,260,1,../static/images/invador2.png,1,80,2,40.0,left,70,2,1106.0,0.856067431,0,0,1,7860.0,980.0,8.020408163265307,16.040816326530614,16.13034076435623,32.26068152871246
3,261,1,../static/images/invador3.png,4,20,8,2.5,right,74,2,611.0,-1.2880389,1,0,1,7940.0,984.0,8.06910569105691,64.55284552845528,16.475707875254038,131.8056630020323
3,262,1,../static/images/invador3.png,4,20,8,2.5,right,70,1,870.0,-0.166173163,0,0,1,7960.0,994.0,8.008048289738431,64.06438631790745,16.175602944694774,129.4048235575582
3,263,1,../static/images/invador1.png,3,80,8,10.0,right,70,1,539.0,-1.599908911,2,0,1,7960.0,996.0,7.991967871485944,63.93574297188755,16.11063397058555,128.8850717646844
3,264,1,../static/images/invador4.png,2,20,2,10.0,right,74,2,1165.0,1.11162758,0,0,1,7960.0,998.0,7.975951903807616,15.951903807615231,16.04592594301484,32.09185188602968
3,265,1,../static/images/invador3.png,4,20,8,2.5,left,74,1,819.0,-0.387081088,0,0,1,7980.0,1002.0,7.9640718562874255,63.712574850299404,15.947124054566043,127.57699243652834
3,266,1,../static/images/invador3.png,4,20,8,2.5,left,74,1,656.0,-1.093120142,0,0,1,7980.0,1004.0,7.948207171314741,63.58565737051793,15.883072761185508,127.06458208948406
3,267,1,../static/images/invador3.png,4,20,8,2.5,left,70,2,589.0,-1.383332514,1,0,1,7980.0,1006.0,7.932405566600398,63.45924453280318,15.819278728497851,126.55422982798281
3,268,1,../static/images/invador2.png,1,80,2,40.0,left,74,1,747.0,-0.6989511,2,0,1,8000.0,1016.0,7.874015748031496,15.748031496062993,15.537046825351192,31.074093650702384
3,269,1,../static/images/invador3.png,4,20,8,2.5,right,74,2,1013.0,0.453235333,1,0,1,8000.0,1018.0,7.858546168958743,62.86836935166994,15.47464259866602,123.79714078932815
3,270,1,../static/images/invador4.png,2,20,2,10.0,right,74,2,1139.0,0.999007853,0,0,1,8020.0,1028.0,7.801556420233463,15.603112840466926,15.20179432972618,30.40358865945236
3,271,1,../static/images/invador1.png,3,80,8,10.0,left,70,2,763.0,-0.629646653,1,0,1,8040.0,1032.0,7.790697674418604,62.325581395348834,15.116001780215175,120.9280142417214
3,272,1,../static/images/invador3.png,4,20,8,2.5,right,70,1,922.0,0.05906629,0,0,1,8120.0,1042.0,7.792706333973128,62.341650671785025,15.298388419158822,122.38710735327058
3,273,1,../static/images/invador4.png,2,20,2,10.0,left,70,2,996.0,0.379599358,0,0,1,8120.0,1044.0,7.777777777777778,15.555555555555555,15.236942759017715,30.47388551803543
