subj,trial_index_actual,block,stimulus,stim_rank,reward_percent,delay_s,profitability,stim_left_right,key_press,approach_avoid,rt,rt_z,force_trial,missed,order_condition,reward_sum,delay_sum,Q_arithmetic,opp_cost_arithmetic,Q_estimate,opp_cost_estimate,dv,dv_abs,choice_log_reg,reward_factor,delay_factor,stim_rank_factor,reward_factor_1back,delay_factor_1back,reward_factor_2back,delay_factor_2back,reward_factor_3back,delay_factor_3back,choice_log_reg_1back,choice_reward_1back_interaction,choice_delay_1back_interaction,change_delay,change_reward,stim_rank_factor_1back
1,0,1,../static/images/invador2.png,4,20,8,2.5,left,74,1,1172,1.47500432853951,0,0,1,0,2,0,0,7.54457700891709,60.3566160713367,-40.3566160713367,40.3566160713367,0,-1,-1,-1,NaN,NaN,NaN,NaN,NaN,NaN,NaN,NaN,NaN,0,0,NaN
1,2,1,../static/images/invador1.png,3,80,8,10,left,70,2,743,-0.665547054358389,0,0,1,80,8,10,80,9.14710180531537,73.176814442523,6.82318555747702,6.82318555747702,1,1,-1,0,1,1,-1,-1,NaN,NaN,1,1,1,2,0,1
1,4,1,../static/images/invador2.png,4,20,8,2.5,left,70,2,858,-0.0917395740943829,0,0,1,160,28,5.71428571428571,45.7142857142857,6.03512452443735,48.2809961954988,-28.2809961954988,28.2809961954988,1,-1,-1,-1,-1,-1,1,-1,1,1,NaN,NaN,NaN,10,80,-1
1,5,1,../static/images/invador4.png,2,20,2,10,left,70,2,818,-0.291324784620994,0,0,1,180,38,4.73684210526316,9.47368421052632,4.63818701664416,9.27637403328831,10.7236259667117,10.7236259667117,1,-1,1,0,-1,-1,-1,-1,1,-1,1,-1,-1,10,0,-1
1,6,1,../static/images/invador2.png,4,20,8,2.5,left,70,2,1076,0.995999823275646,0,0,1,200,42,4.76190476190476,38.0952380952381,4.61564101441674,36.9251281153339,-16.9251281153339,16.9251281153339,1,-1,-1,-1,-1,1,-1,-1,-1,-1,1,-1,1,10,20,0
1,7,1,../static/images/invador2.png,4,20,8,2.5,right,74,2,987,0.551922729853937,0,0,1,220,52,4.23076923076923,33.8461538461538,3.75893089922717,30.0714471938173,-10.0714471938173,10.0714471938173,1,-1,-1,-1,-1,-1,-1,1,-1,-1,1,-1,-1,4,20,-1
1,9,1,../static/images/invador4.png,2,20,2,10,right,74,2,1059,0.911176108801837,0,0,1,240,64,3.75,7.5,2.96300663495753,5.92601326991506,14.0739867300849,14.0739867300849,1,-1,1,0,1,-1,-1,-1,-1,-1,0,0,-0,10,20,0
1,11,1,../static/images/invador3.png,1,80,2,40,right,74,2,940,0.317410107485169,0,0,1,260,70,3.71428571428571,7.42857142857143,3.00463784584649,6.00927569169299,73.990724308307,73.990724308307,1,1,1,1,-1,-1,-1,1,1,-1,0,-0,-0,4,20,-1
1,13,1,../static/images/invador2.png,4,20,8,2.5,left,70,2,907,0.152752308800715,0,0,1,340,76,4.47368421052632,35.7894736842105,5.51315149457836,44.1052119566269,-24.1052119566269,24.1052119566269,1,-1,-1,-1,-1,-1,1,1,-1,-1,0,-0,-0,4,80,-1
1,15,1,../static/images/invador2.png,4,20,8,2.5,left,70,2,919,0.212627871958699,0,0,1,360,88,4.09090909090909,32.7272727272727,3.9603215881422,31.6825727051376,-11.6825727051376,11.6825727051376,1,-1,-1,-1,-1,-1,-1,-1,-1,-1,0,-0,-0,10,20,-1
1,16,1,../static/images/invador2.png,4,20,8,2.5,left,74,1,949,0.362316779853657,0,0,1,380,98,3.87755102040816,31.0204081632653,3.35301310564483,26.8241048451586,-6.82410484515864,6.82410484515864,0,-1,-1,-1,-1,-1,-1,-1,-1,-1,1,-1,-1,2,0,-1
1,17,1,../static/images/invador4.png,2,20,2,10,left,70,2,873,-0.0168951201469038,0,0,1,380,100,3.8,7.6,3.07750189628293,6.15500379256585,13.8449962074341,13.8449962074341,1,-1,1,0,-1,-1,-1,-1,-1,-1,0,-0,-0,10,20,-1
1,18,1,../static/images/invador1.png,3,80,8,10,left,70,2,1016,0.69662200748573,0,0,1,400,104,3.84615384615385,30.7692307692308,3.36535002355195,26.9228001884156,53.0771998115844,53.0771998115844,1,1,-1,0,-1,1,-1,-1,-1,-1,1,-1,1,2,0,0
1,19,1,../static/images/invador3.png,1,80,2,40,left,70,2,907,0.152752308800715,0,0,1,480,114,4.21052631578947,8.42105263157895,5.68421109130972,11.3684221826194,68.6315778173806,68.6315778173806,1,1,1,1,1,-1,-1,1,-1,-1,1,1,-1,4,20,0
1,20,1,../static/images/invador2.png,4,20,8,2.5,left,74,1,763,-0.565754449095084,0,0,1,560,118,4.74576271186441,37.9661016949153,8.15336354317582,65.2269083454066,-45.2269083454066,45.2269083454066,0,-1,-1,-1,1,1,1,-1,-1,1,1,1,1,10,80,1
1,21,1,../static/images/invador2.png,4,20,8,2.5,left,74,1,1056,0.896207218012341,0,0,1,560,120,4.66666666666667,37.3333333333333,7.48341595294246,59.8673276235397,-39.8673276235397,39.8673276235397,0,-1,-1,-1,-1,-1,1,1,1,-1,0,-0,-0,4,80,-1
1,22,1,../static/images/invador4.png,2,20,2,10,right,74,2,772,-0.520847776726596,0,0,1,560,122,4.59016393442623,9.18032786885246,6.868516781841,13.737033563682,6.262966436318,6.262966436318,1,-1,1,0,-1,-1,-1,-1,1,1,0,-0,-0,2,0,-1
1,23,1,../static/images/invador2.png,4,20,8,2.5,left,74,1,868,-0.0418432714627302,0,0,1,580,126,4.6031746031746,36.8253968253968,6.40239554657872,51.2191643726298,-31.2191643726298,31.2191643726298,0,-1,-1,-1,-1,1,-1,-1,-1,-1,1,-1,1,2,0,0
1,24,1,../static/images/invador1.png,3,80,8,10,right,74,2,1015,0.691632377222565,0,0,1,580,128,4.53125,36.25,5.8763219273371,47.0105754186968,32.9894245813032,32.9894245813032,1,1,-1,0,-1,-1,-1,1,-1,-1,0,-0,-0,4,20,-1
1,25,1,../static/images/invador3.png,1,80,2,40,left,74,1,961,0.42219234301164,0,0,1,660,138,4.78260869565217,9.56521739130435,7.23955667403736,14.4791133480747,65.5208866519253,65.5208866519253,0,1,1,1,1,-1,-1,-1,-1,1,1,1,-1,2,0,0
1,26,1,../static/images/invador2.png,4,20,8,2.5,right,70,1,1075,0.991010193012481,0,0,1,660,140,4.71428571428571,37.7142857142857,6.64469499242025,53.157559939362,-33.157559939362,33.157559939362,0,-1,-1,-1,1,1,1,-1,-1,-1,0,0,0,10,80,1
1,27,1,../static/images/invador2.png,4,20,8,2.5,left,74,1,1015,0.691632377222565,0,0,1,660,142,4.64788732394366,37.1830985915493,6.09871205244286,48.7896964195429,-28.7896964195429,28.7896964195429,0,-1,-1,-1,-1,-1,1,1,1,-1,0,-0,-0,2,0,-1
1,28,1,../static/images/invador4.png,2,20,2,10,left,70,2,954,0.387264931169483,0,0,1,660,144,4.58333333333333,9.16666666666667,5.59759157358467,11.1951831471693,8.80481685283067,8.80481685283067,1,-1,1,0,-1,-1,-1,-1,1,1,0,-0,-0,2,0,-1
1,29,1,../static/images/invador2.png,4,20,8,2.5,left,70,2,907,0.152752308800715,0,0,1,680,148,4.59459459459459,36.7567567567568,5.38423607468085,43.0738885974468,-23.0738885974468,23.0738885974468,1,-1,-1,-1,-1,1,-1,-1,-1,-1,1,-1,1,2,0,0
1,32,1,../static/images/invador2.png,4,20,8,2.5,right,70,1,948,0.357327149590492,0,0,1,780,164,4.75609756097561,38.0487804878049,6.71361182285255,53.7088945828204,-33.7088945828204,33.7088945828204,0,-1,-1,-1,1,1,1,-1,-1,-1,1,1,1,2,0,1
1,33,1,../static/images/invador2.png,4,20,8,2.5,left,74,1,967,0.452130124590632,0,0,1,780,166,4.69879518072289,37.5903614457831,6.16196610772351,49.2957288617881,-29.2957288617881,29.2957288617881,0,-1,-1,-1,-1,-1,1,1,1,-1,0,-0,-0,4,80,-1
1,34,1,../static/images/invador2.png,4,20,8,2.5,right,70,1,1068,0.956082781170324,0,0,1,780,168,4.64285714285714,37.1428571428571,5.65564815402154,45.2451852321723,-25.2451852321723,25.2451852321723,0,-1,-1,-1,-1,-1,-1,-1,1,1,0,-0,-0,2,0,-1
1,35,1,../static/images/invador3.png,1,80,2,40,right,74,2,783,-0.465961843831778,0,0,1,780,170,4.58823529411765,9.17647058823529,5.19093345904566,10.3818669180913,69.6181330819087,69.6181330819087,1,1,1,1,-1,-1,-1,-1,-1,-1,0,-0,-0,2,0,-1
1,36,1,../static/images/invador2.png,4,20,8,2.5,right,70,1,1000,0.616787923275086,0,0,1,860,174,4.94252873563218,39.5402298850575,7.75819056973699,62.065524557896,-42.065524557896,42.065524557896,0,-1,-1,-1,1,1,-1,-1,-1,-1,1,1,1,2,0,1
1,37,1,../static/images/invador4.png,2,20,2,10,left,70,2,893,0.0828974851164016,0,0,1,860,176,4.88636363636364,9.77272727272727,7.1207136500286,14.2414273000572,5.75857269994281,5.75857269994281,1,-1,1,0,-1,-1,1,1,-1,-1,0,-0,-0,4,80,-1
1,38,1,../static/images/invador1.png,3,80,8,10,right,74,2,777,-0.49589962541077,0,0,1,880,180,4.88888888888889,39.1111111111111,6.60443468189532,52.8354774551626,27.1645225448374,27.1645225448374,1,1,-1,0,-1,1,-1,-1,1,1,1,-1,1,2,0,0
1,39,1,../static/images/invador2.png,4,20,8,2.5,left,74,1,1006,0.646725704854077,0,0,1,960,190,5.05263157894737,40.4210526315789,7.69056409264792,61.5245127411833,-41.5245127411833,41.5245127411833,0,-1,-1,-1,1,-1,-1,1,-1,-1,1,1,-1,4,20,0
1,40,1,../static/images/invador2.png,4,20,8,2.5,right,70,1,1025,0.741528679854217,0,0,1,960,192,5,40,7.05864392201883,56.4691513761506,-36.4691513761506,36.4691513761506,0,-1,-1,-1,-1,-1,1,-1,-1,1,0,-0,-0,10,80,-1
1,41,1,../static/images/invador2.png,4,20,8,2.5,right,70,1,931,0.272503435116682,0,0,1,960,194,4.94845360824742,39.5876288659794,6.47864752411138,51.8291801928911,-31.8291801928911,31.8291801928911,0,-1,-1,-1,-1,-1,-1,-1,1,-1,0,-0,-0,2,0,-1
1,42,1,../static/images/invador2.png,4,20,8,2.5,right,70,1,982,0.526974578538111,0,0,1,960,196,4.89795918367347,39.1836734693878,5.94630841353873,47.5704673083098,-27.5704673083098,27.5704673083098,0,-1,-1,-1,-1,-1,-1,-1,-1,-1,0,-0,-0,2,0,-1
1,43,1,../static/images/invador4.png,2,20,2,10,right,74,2,888,0.0579493338005753,0,0,1,960,198,4.84848484848485,9.6969696969697,5.45771067453948,10.915421349079,9.08457865092105,9.08457865092105,1,-1,1,0,-1,-1,-1,-1,-1,-1,0,-0,-0,2,0,-1
1,44,1,../static/images/invador2.png,4,20,8,2.5,right,70,1,885,0.0429804430110794,0,0,1,980,202,4.85148514851485,38.8118811881188,5.2721751434984,42.1774011479872,-22.1774011479872,22.1774011479872,0,-1,-1,-1,-1,1,-1,-1,-1,-1,1,-1,1,2,0,0
1,45,1,../static/images/invador2.png,4,20,8,2.5,right,70,1,1032,0.776456091696374,0,0,1,980,204,4.80392156862745,38.4313725490196,4.83896975360367,38.7117580288294,-18.7117580288294,18.7117580288294,0,-1,-1,-1,-1,-1,-1,1,-1,-1,0,-0,-0,4,20,-1
1,48,1,../static/images/invador2.png,4,20,8,2.5,right,70,1,962,0.427181973274805,0,0,1,1060,226,4.69026548672566,37.5221238938053,5.39155778227974,43.1324622582379,-23.1324622582379,23.1324622582379,0,-1,-1,-1,1,-1,1,1,-1,-1,1,1,-1,10,0,0
1,49,1,../static/images/invador2.png,4,20,8,2.5,left,70,2,722,-0.77032928988486,0,0,1,1060,228,4.64912280701754,37.1929824561403,4.94854293022332,39.5883434417866,-19.5883434417866,19.5883434417866,1,-1,-1,-1,-1,-1,1,-1,1,1,0,-0,-0,10,80,-1
1,50,1,../static/images/invador2.png,4,20,8,2.5,right,70,1,884,0.0379908127479142,0,0,1,1080,238,4.53781512605042,36.3025210084034,3.96513691987233,31.7210953589786,-11.7210953589786,11.7210953589786,0,-1,-1,-1,-1,-1,-1,-1,1,-1,1,-1,-1,2,0,-1
1,52,1,../static/images/invador3.png,1,80,2,40,left,70,2,933,0.282482695643012,0,0,1,1080,242,4.46280991735537,8.92561983471074,3.34029132053546,6.68058264107091,73.3194173589291,73.3194173589291,1,1,1,1,1,-1,-1,-1,-1,-1,0,0,-0,2,0,0
1,53,1,../static/images/invador2.png,4,20,8,2.5,right,70,1,886,0.0479700732742447,0,0,1,1160,246,4.71544715447155,37.7235772357724,6.27561015495192,50.2048812396153,-30.2048812396153,30.2048812396153,0,-1,-1,-1,1,1,1,-1,-1,-1,1,1,1,2,0,1
1,55,1,../static/images/invador4.png,2,20,2,10,right,74,2,885,0.0429804430110794,0,0,1,1160,250,4.64,9.28,5.2866689234845,10.573337846969,9.42666215303101,9.42666215303101,1,-1,1,0,-1,-1,-1,-1,1,1,0,-0,-0,2,0,-1
1,57,1,../static/images/invador3.png,1,80,2,40,right,74,2,969,0.462109385116962,0,0,1,1180,256,4.609375,9.21875,4.71320439765733,9.42640879531466,70.5735912046853,70.5735912046853,1,1,1,1,1,-1,-1,1,-1,-1,0,0,-0,4,20,0
1,58,1,../static/images/invador2.png,4,20,8,2.5,right,70,1,975,0.492047166695954,0,0,1,1260,260,4.84615384615385,38.7692307692308,7.37547381685998,59.0037905348799,-39.0037905348799,39.0037905348799,0,-1,-1,-1,1,1,1,-1,-1,1,1,1,1,2,0,1
1,59,1,../static/images/invador4.png,2,20,2,10,left,70,2,1033,0.78144572195954,0,0,1,1260,262,4.80916030534351,9.61832061068702,6.76944406186761,13.5388881237352,6.46111187626478,6.46111187626478,1,-1,1,0,-1,-1,1,1,1,-1,0,-0,-0,4,80,-1
1,61,1,../static/images/invador2.png,4,20,8,2.5,left,74,1,1219,1.70951695090828,0,0,1,1280,268,4.77611940298507,38.2089552238806,5.80347470836762,46.4277976669409,-26.4277976669409,26.4277976669409,0,-1,-1,-1,-1,-1,-1,1,-1,-1,0,-0,-0,4,20,-1
1,62,1,../static/images/invador2.png,4,20,8,2.5,right,70,1,1046,0.846310915380688,0,0,1,1280,270,4.74074074074074,37.9259259259259,5.3266133645477,42.6129069163816,-22.6129069163816,22.6129069163816,0,-1,-1,-1,-1,-1,-1,-1,-1,1,0,-0,-0,2,0,-1
1,63,1,../static/images/invador2.png,4,20,8,2.5,right,70,1,963,0.432171603537971,0,0,1,1280,272,4.70588235294118,37.6470588235294,4.88893488145463,39.111479051637,-19.111479051637,19.111479051637,0,-1,-1,-1,-1,-1,-1,-1,-1,-1,0,-0,-0,2,0,-1
1,65,1,../static/images/invador2.png,4,20,8,2.5,right,70,1,852,-0.121677355673375,0,0,1,1280,276,4.63768115942029,37.1014492753623,4.11851269734004,32.9481015787203,-12.9481015787203,12.9481015787203,0,-1,-1,-1,-1,-1,-1,-1,-1,-1,0,-0,-0,2,0,-1
1,66,1,../static/images/invador4.png,2,20,2,10,right,70,1,933,0.282482695643012,0,0,1,1280,278,4.60431654676259,9.20863309352518,3.78010172838014,7.56020345676028,12.4397965432397,12.4397965432397,0,-1,1,0,-1,-1,-1,-1,-1,-1,0,-0,-0,2,0,-1
1,68,1,../static/images/invador1.png,3,80,8,10,right,70,1,836,-0.201511439884019,0,0,1,1280,282,4.53900709219858,36.3120567375887,3.18441487626002,25.4753190100801,54.5246809899199,54.5246809899199,0,1,-1,0,1,1,-1,1,-1,-1,0,0,0,2,0,1
1,69,1,../static/images/invador2.png,4,20,8,2.5,right,70,1,1014,0.686642746959399,0,0,1,1280,284,4.50704225352113,36.056338028169,2.9227570878692,23.3820567029536,-3.38205670295364,3.38205670295364,0,-1,-1,-1,1,-1,1,1,-1,1,0,0,-0,2,0,0
1,71,1,../static/images/invador1.png,3,80,8,10,right,74,2,805,-0.356189978042142,0,0,1,1280,288,4.44444444444444,35.5555555555556,2.46217478234203,19.6973982587362,60.3026017412638,60.3026017412638,1,1,-1,0,-1,-1,-1,-1,1,-1,0,-0,-0,2,0,-1
1,72,1,../static/images/invador2.png,4,20,8,2.5,right,70,1,1036,0.796414612749035,0,0,1,1360,298,4.56375838926174,36.510067114094,5.12476651141329,40.9981320913064,-20.9981320913064,20.9981320913064,0,-1,-1,-1,1,-1,-1,-1,-1,-1,1,1,-1,2,0,0
1,73,1,../static/images/invador2.png,4,20,8,2.5,left,74,1,1125,1.24049170617074,0,0,1,1360,300,4.53333333333333,36.2666666666667,4.70367343042299,37.6293874433839,-17.6293874433839,17.6293874433839,0,-1,-1,-1,-1,-1,1,-1,-1,-1,0,-0,-0,10,80,-1
1,76,1,../static/images/invador2.png,4,20,8,2.5,right,74,2,1543,3.32615715617383,0,0,1,1360,314,4.3312101910828,34.6496815286624,2.58094476112933,20.6475580890346,-0.647558089034618,0.647558089034618,1,-1,-1,-1,1,1,-1,1,-1,-1,NaN,NaN,NaN,2,0,1
1,78,1,../static/images/invador2.png,4,20,8,2.5,right,70,1,1068,0.956082781170324,0,0,1,1380,326,4.23312883435583,33.8650306748466,2.29329428904014,18.3463543123212,1.65364568767885,1.65364568767885,0,-1,-1,-1,-1,-1,-1,-1,1,1,0,-0,-0,10,20,-1
1,79,1,../static/images/invador4.png,2,20,2,10,left,70,2,1022,0.726559789064722,0,0,1,1380,328,4.20731707317073,8.41463414634146,2.10485831724734,4.20971663449468,15.7902833655053,15.7902833655053,1,-1,1,0,-1,-1,-1,-1,-1,-1,0,-0,-0,2,0,-1
1,80,1,../static/images/invador1.png,3,80,8,10,right,74,2,1161,1.42011839564469,0,0,1,1400,332,4.21686746987952,33.7349397590361,2.58614896093836,20.6891916875069,59.3108083124931,59.3108083124931,1,1,-1,0,-1,1,-1,-1,-1,-1,1,-1,1,2,0,0
1,81,1,../static/images/invador3.png,1,80,2,40,left,70,2,883,0.0330011824847489,0,0,1,1480,342,4.32748538011696,8.65497076023392,5.20155856582116,10.4031171316423,69.5968828683577,69.5968828683577,1,1,1,1,1,-1,-1,1,-1,-1,1,1,-1,4,20,0
1,82,1,../static/images/invador2.png,4,20,8,2.5,left,74,1,924,0.237576023274525,0,0,1,1560,346,4.50867052023121,36.0693641618497,7.76670252074177,62.1336201659341,-42.1336201659341,42.1336201659341,0,-1,-1,-1,1,1,1,-1,-1,1,1,1,1,10,80,1
1,83,1,../static/images/invador2.png,4,20,8,2.5,right,70,1,1178,1.5049421101185,0,0,1,1560,348,4.48275862068965,35.8620689655172,7.12852618893999,57.0282095115199,-37.0282095115199,37.0282095115199,0,-1,-1,-1,-1,-1,1,1,1,-1,0,-0,-0,4,80,-1
1,84,1,../static/images/invador2.png,4,20,8,2.5,left,70,2,1066,0.946103520643994,0,0,1,1560,350,4.45714285714286,35.6571428571429,6.54278768765693,52.3423015012554,-32.3423015012554,32.3423015012554,1,-1,-1,-1,-1,-1,-1,-1,1,1,0,-0,-0,2,0,-1
1,87,1,../static/images/invador4.png,2,20,2,10,left,74,1,1121,1.22053318511808,0,0,1,1620,380,4.26315789473684,8.52631578947368,3.35756916750136,6.71513833500273,13.2848616649973,13.2848616649973,0,-1,1,0,-1,-1,-1,-1,-1,-1,1,-1,-1,10,20,-1
1,88,1,../static/images/invador2.png,4,20,8,2.5,left,70,2,1104,1.13570947064427,0,0,1,1620,382,4.24083769633508,33.9267015706806,3.08168359452307,24.6534687561846,-4.65346875618459,4.65346875618459,1,-1,-1,-1,-1,1,-1,-1,-1,-1,0,-0,0,10,20,0
1,89,1,../static/images/invador1.png,3,80,8,10,right,74,2,896,0.0978663759058974,0,0,1,1640,392,4.18367346938776,33.469387755102,2.80876738145647,22.4701390516517,57.5298609483483,57.5298609483483,1,1,-1,0,-1,-1,-1,1,-1,-1,1,-1,-1,2,0,-1
1,90,1,../static/images/invador3.png,1,80,2,40,left,70,2,832,-0.22146996093668,0,0,1,1720,402,4.27860696517413,8.55721393034826,5.33945281165668,10.6789056233134,69.3210943766866,69.3210943766866,1,1,1,1,1,-1,-1,-1,-1,1,1,1,-1,10,20,0
1,92,1,../static/images/invador4.png,2,20,2,10,left,70,2,931,0.272503435116682,0,0,1,1820,416,4.375,8.75,5.77918754364187,11.5583750872837,8.44162491271625,8.44162491271625,1,-1,1,0,-1,-1,1,1,1,-1,1,-1,-1,4,80,-1
1,95,1,../static/images/invador2.png,4,20,8,2.5,left,74,1,1211,1.66959990880296,0,0,1,1840,424,4.33962264150943,34.7169811320755,4.65831610791357,37.2665288633085,-17.2665288633085,17.2665288633085,0,-1,-1,-1,-1,-1,1,1,-1,1,0,-0,-0,2,0,-1
1,96,1,../static/images/invador1.png,3,80,8,10,right,74,2,905,0.142773048274385,0,0,1,1840,426,4.31924882629108,34.5539906103286,4.27555043893343,34.2044035114675,45.7955964885325,45.7955964885325,1,1,-1,0,-1,-1,-1,-1,1,1,0,-0,-0,2,0,-1
1,97,1,../static/images/invador2.png,4,20,8,2.5,left,74,1,1021,0.721570158801556,0,0,1,1920,436,4.40366972477064,35.2293577981651,6.24800720281794,49.9840576225435,-29.9840576225435,29.9840576225435,0,-1,-1,-1,1,-1,-1,-1,-1,-1,1,1,-1,2,0,0
1,98,1,../static/images/invador2.png,4,20,8,2.5,right,70,1,971,0.472088645643293,0,0,1,1920,438,4.38356164383562,35.0684931506849,5.73461940315432,45.8769552252346,-25.8769552252346,25.8769552252346,0,-1,-1,-1,-1,-1,1,-1,-1,-1,0,-0,-0,10,80,-1
1,99,1,../static/images/invador2.png,4,20,8,2.5,left,74,1,995,0.591839771959259,0,0,1,1920,440,4.36363636363636,34.9090909090909,5.26341577906666,42.1073262325333,-22.1073262325333,22.1073262325333,0,-1,-1,-1,-1,-1,-1,-1,1,-1,0,-0,-0,2,0,-1
1,100,1,../static/images/invador4.png,2,20,2,10,right,74,2,1089,1.06086501669679,0,0,1,1920,442,4.34389140271493,8.68778280542986,4.83093013079291,9.66186026158582,10.3381397384142,10.3381397384142,1,-1,1,0,-1,-1,-1,-1,-1,-1,0,-0,-0,2,0,-1
1,101,1,../static/images/invador3.png,1,80,2,40,left,70,2,804,-0.361179608305308,0,0,1,1940,446,4.34977578475336,8.69955156950673,4.77005075154272,9.54010150308545,70.4598984969145,70.4598984969145,1,1,1,1,-1,1,-1,-1,-1,-1,1,-1,1,2,0,0
1,102,1,../static/images/invador2.png,4,20,8,2.5,right,70,1,994,0.586850141696094,0,0,1,2020,450,4.48888888888889,35.9111111111111,7.42101438311461,59.3681150649169,-39.3681150649169,39.3681150649169,0,-1,-1,-1,1,1,-1,1,-1,-1,1,1,1,4,20,1
1,103,1,../static/images/invador1.png,3,80,8,10,left,70,2,1199,1.60972434564497,0,0,1,2020,452,4.46902654867257,35.7522123893805,6.81124263962159,54.4899411169728,25.5100588830272,25.5100588830272,1,1,-1,0,-1,-1,1,1,-1,1,0,-0,-0,4,80,-1
1,105,1,../static/images/invador2.png,4,20,8,2.5,left,74,1,939,0.312420477222004,0,0,1,2120,472,4.49152542372881,35.9322033898305,5.74294722361292,45.9435777889034,-25.9435777889034,25.9435777889034,0,-1,-1,-1,-1,-1,1,-1,-1,-1,1,-1,-1,10,80,-1
1,106,1,../static/images/invador2.png,4,20,8,2.5,right,70,1,952,0.377285670643153,0,0,1,2120,474,4.47257383966245,35.7805907172996,5.27105931711609,42.1684745369287,-22.1684745369287,22.1684745369287,0,-1,-1,-1,-1,-1,-1,-1,1,-1,0,-0,-0,10,20,-1
1,108,1,../static/images/invador2.png,4,20,8,2.5,left,74,1,963,0.432171603537971,0,0,1,2200,486,4.52674897119342,36.2139917695473,6.59636587938318,52.7709270350655,-32.7709270350655,32.7709270350655,0,-1,-1,-1,1,-1,-1,-1,-1,-1,1,1,-1,2,0,0
1,109,1,../static/images/invador4.png,2,20,2,10,left,74,1,878,0.00805303116892254,0,0,1,2200,488,4.50819672131148,9.01639344262295,6.05435405790748,12.108708115815,7.89129188418504,7.89129188418504,0,-1,1,0,-1,-1,1,-1,-1,-1,0,-0,-0,10,80,-1
1,110,1,../static/images/invador3.png,1,80,2,40,left,70,2,809,-0.336231456989481,0,0,1,2200,490,4.48979591836735,8.97959183673469,5.5568783977047,11.1137567954094,68.8862432045906,68.8862432045906,1,1,1,1,-1,1,-1,-1,1,-1,0,-0,0,2,0,0
1,111,1,../static/images/invador2.png,4,20,8,2.5,right,70,1,814,-0.311283305673655,0,0,1,2280,494,4.61538461538461,36.9230769230769,8.05135518954965,64.4108415163972,-44.4108415163972,44.4108415163972,0,-1,-1,-1,1,1,-1,1,-1,-1,1,1,1,2,0,1
1,112,1,../static/images/invador2.png,4,20,8,2.5,left,74,1,890,0.0679285943269058,0,0,1,2280,496,4.59677419354839,36.7741935483871,7.38978944692233,59.1183155753787,-39.1183155753787,39.1183155753787,0,-1,-1,-1,-1,-1,1,1,-1,1,0,-0,-0,4,80,-1
1,113,1,../static/images/invador2.png,4,20,8,2.5,right,70,1,935,0.292461956169343,0,0,1,2280,498,4.57831325301205,36.6265060240964,6.78258340170174,54.2606672136139,-34.2606672136139,34.2606672136139,0,-1,-1,-1,-1,-1,-1,-1,1,1,0,-0,-0,2,0,-1
1,114,1,../static/images/invador2.png,4,20,8,2.5,left,74,1,900,0.117824896958559,0,0,1,2280,500,4.56,36.48,6.22527041283961,49.8021633027169,-29.8021633027169,29.8021633027169,0,-1,-1,-1,-1,-1,-1,-1,-1,-1,0,-0,-0,2,0,-1
1,115,1,../static/images/invador3.png,1,80,2,40,right,74,2,783,-0.465961843831778,0,0,1,2280,502,4.54183266932271,9.08366533864542,5.71375085535298,11.427501710706,68.572498289294,68.572498289294,1,1,1,1,-1,-1,-1,-1,-1,-1,0,-0,-0,2,0,-1
1,116,1,../static/images/invador4.png,2,20,2,10,left,70,2,1158,1.4051495048552,0,0,1,2360,506,4.66403162055336,9.32806324110672,8.17702834293185,16.3540566858637,3.64594331413631,3.64594331413631,1,-1,1,0,1,1,-1,-1,-1,-1,1,1,1,2,0,1
1,117,1,../static/images/invador2.png,4,20,8,2.5,left,74,1,927,0.252544914064021,0,0,1,2380,510,4.66666666666667,37.3333333333333,7.45066607529091,59.6053286023273,-39.6053286023273,39.6053286023273,0,-1,-1,-1,-1,1,1,1,-1,-1,1,-1,1,4,80,0
1,118,1,../static/images/invador1.png,3,80,8,10,right,70,1,1067,0.951093150907159,0,0,1,2380,512,4.6484375,37.1875,6.8384579042285,54.707663233828,25.292336766172,25.292336766172,0,1,-1,0,-1,-1,-1,1,1,1,0,-0,-0,4,20,-1
1,120,1,../static/images/invador4.png,2,20,2,10,right,70,1,6,-4.34290455831119,0,0,1,2380,516,4.61240310077519,9.22480620155039,5.76082038147552,11.521640762951,8.47835923704897,8.47835923704897,0,-1,1,0,-1,-1,1,-1,-1,-1,0,-0,-0,2,0,-1
1,121,1,../static/images/invador2.png,4,20,8,2.5,left,70,2,1019,0.711590898275226,0,0,1,2380,518,4.59459459459459,36.7567567567568,5.28746386892715,42.2997109514172,-22.2997109514172,22.2997109514172,1,-1,-1,-1,-1,1,-1,-1,1,-1,0,-0,0,2,0,0
1,122,1,../static/images/invador1.png,3,80,8,10,left,70,2,1071,0.97105167195982,0,0,1,2400,528,4.54545454545455,36.3636363636364,4.17507124216094,33.4005699372875,46.5994300627125,46.5994300627125,1,1,-1,0,-1,-1,-1,1,-1,-1,1,-1,-1,2,0,-1
1,123,1,../static/images/invador3.png,1,80,2,40,left,70,2,1138,1.30535689959189,0,0,1,2480,538,4.60966542750929,9.21933085501859,6.1857684041199,12.3715368082398,67.6284631917602,67.6284631917602,1,1,1,1,1,-1,-1,-1,-1,1,1,1,-1,10,20,0
1,125,1,../static/images/invador2.png,4,20,8,2.5,right,70,1,1110,1.16564725222327,0,0,1,2560,544,4.70588235294118,37.6470588235294,7.85220622539932,62.8176498031946,-42.8176498031946,42.8176498031946,0,-1,-1,-1,-1,-1,1,1,1,-1,0,-0,-0,4,80,-1
1,126,1,../static/images/invador2.png,4,20,8,2.5,right,70,1,1074,0.986020562749316,0,0,1,2560,546,4.68864468864469,37.5091575091575,7.2070042040661,57.6560336325288,-37.6560336325288,37.6560336325288,0,-1,-1,-1,-1,-1,-1,-1,1,1,0,-0,-0,2,0,-1
1,127,1,../static/images/invador2.png,4,20,8,2.5,left,74,1,827,-0.246418112252506,0,0,1,2560,548,4.67153284671533,37.3722627737226,6.61481730184499,52.91853841476,-32.91853841476,32.91853841476,0,-1,-1,-1,-1,-1,-1,-1,-1,-1,0,-0,-0,2,0,-1
1,128,1,../static/images/invador1.png,3,80,8,10,left,74,1,855,-0.106708464883879,0,0,1,2560,550,4.65454545454545,37.2363636363636,6.07128935932928,48.5703148746342,31.4296851253658,31.4296851253658,0,1,-1,0,-1,-1,-1,-1,-1,-1,0,-0,-0,2,0,-1
1,129,1,../static/images/invador2.png,4,20,8,2.5,right,70,1,770,-0.530827037252927,0,0,1,2560,552,4.63768115942029,37.1014492753623,5.57242215509472,44.5793772407578,-24.5793772407578,24.5793772407578,0,-1,-1,-1,1,-1,-1,-1,-1,-1,0,0,-0,2,0,0
1,130,1,../static/images/invador4.png,2,20,2,10,left,74,1,893,0.0828974851164016,0,0,1,2560,554,4.62093862815884,9.24187725631769,5.114545994563,10.229091989126,9.770908010874,9.770908010874,0,-1,1,0,-1,-1,1,-1,-1,-1,0,-0,-0,2,0,-1
1,131,1,../static/images/invador2.png,4,20,8,2.5,right,70,1,899,0.112835266695393,0,0,1,2560,556,4.60431654676259,36.8345323741007,4.69429271552664,37.5543417242131,-17.5543417242131,17.5543417242131,0,-1,-1,-1,-1,1,-1,-1,1,-1,0,-0,0,2,0,0
1,133,1,../static/images/invador3.png,1,80,2,40,right,74,2,736,-0.700474466200546,0,0,1,2560,560,4.57142857142857,9.14285714285714,3.95454319247854,7.90908638495709,72.0909136150429,72.0909136150429,1,1,1,1,1,1,-1,-1,-1,1,0,0,0,2,0,1
1,135,1,../static/images/invador1.png,3,80,8,10,right,74,2,1111,1.17063688248643,0,0,1,2660,574,4.63414634146341,37.0731707317073,5.09195725736116,40.7356580588893,39.2643419411107,39.2643419411107,1,1,-1,0,-1,-1,1,1,1,1,1,-1,-1,4,80,-1
1,136,1,../static/images/invador4.png,2,20,2,10,left,74,1,937,0.302441216695674,0,0,1,2740,584,4.69178082191781,9.38356164383562,6.75370570818,13.50741141636,6.49258858364,6.49258858364,0,-1,1,0,1,-1,-1,-1,1,1,1,1,-1,10,20,0
1,137,1,../static/images/invador2.png,4,20,8,2.5,left,74,1,1076,0.995999823275646,0,0,1,2740,586,4.67576791808874,37.4061433447099,6.19876554877456,49.5901243901965,-29.5901243901965,29.5901243901965,0,-1,-1,-1,-1,1,1,-1,-1,-1,0,-0,0,10,80,0
1,138,1,../static/images/invador2.png,4,20,8,2.5,right,70,1,1008,0.656704965380408,0,0,1,2740,588,4.65986394557823,37.2789115646259,5.68942384950753,45.5153907960602,-25.5153907960602,25.5153907960602,0,-1,-1,-1,-1,-1,-1,1,1,-1,0,-0,-0,2,0,-1
1,139,1,../static/images/invador2.png,4,20,8,2.5,left,74,1,856,-0.101718834620713,0,0,1,2740,590,4.64406779661017,37.1525423728814,5.2219338648393,41.7754709187144,-21.7754709187144,21.7754709187144,0,-1,-1,-1,-1,-1,-1,-1,-1,1,0,-0,-0,2,0,-1
1,140,1,../static/images/invador2.png,4,20,8,2.5,right,70,1,833,-0.216480330673515,0,0,1,2740,592,4.62837837837838,37.027027027027,4.79285671274356,38.3428537019485,-18.3428537019485,18.3428537019485,0,-1,-1,-1,-1,-1,-1,-1,-1,-1,0,-0,-0,2,0,-1
1,141,1,../static/images/invador2.png,4,20,8,2.5,left,74,1,827,-0.246418112252506,0,0,1,2740,594,4.61279461279461,36.9023569023569,4.39903607810207,35.1922886248165,-15.1922886248165,15.1922886248165,0,-1,-1,-1,-1,-1,-1,-1,-1,-1,0,-0,-0,2,0,-1
1,142,1,../static/images/invador4.png,2,20,2,10,right,74,2,1009,0.661694595643573,0,0,1,2740,596,4.59731543624161,9.19463087248322,4.03757499467708,8.07514998935417,11.9248500106458,11.9248500106458,1,-1,1,0,-1,-1,-1,-1,-1,-1,0,-0,-0,2,0,-1
1,143,1,../static/images/invador3.png,1,80,2,40,left,70,2,805,-0.356189978042142,0,0,1,2760,600,4.6,9.2,4.13448066357242,8.26896132714484,71.7310386728552,71.7310386728552,1,1,1,1,-1,1,-1,-1,-1,-1,1,-1,1,2,0,0
1,144,1,../static/images/invador2.png,4,20,8,2.5,right,70,1,748,-0.640598903042563,0,0,1,2840,604,4.70198675496689,37.6158940397351,6.91184854005943,55.2947883204754,-35.2947883204754,35.2947883204754,0,-1,-1,-1,1,1,-1,1,-1,-1,1,1,1,4,20,1
1,146,1,../static/images/invador2.png,4,20,8,2.5,left,74,1,927,0.252544914064021,0,0,1,2840,608,4.67105263157895,37.3684210526316,5.82264576325389,46.5811661060311,-26.5811661060311,26.5811661060311,0,-1,-1,-1,1,-1,-1,-1,1,1,0,0,-0,2,0,0
1,147,1,../static/images/invador2.png,4,20,8,2.5,left,74,1,1303,2.12864589301416,0,0,1,2840,610,4.65573770491803,37.2459016393443,5.34420916745909,42.7536733396727,-22.7536733396727,22.7536733396727,0,-1,-1,-1,-1,-1,1,-1,-1,-1,0,-0,-0,2,0,-1
1,149,1,../static/images/invador3.png,1,80,2,40,left,70,2,931,0.272503435116682,0,0,1,2840,614,4.62540716612378,9.25081433224756,4.50204264264459,9.00408528528918,70.9959147147108,70.9959147147108,1,1,1,1,1,-1,-1,-1,-1,-1,0,0,-0,2,0,0
1,151,1,../static/images/invador2.png,4,20,8,2.5,left,74,1,872,-0.0218847504100691,0,0,1,2940,622,4.72668810289389,37.8135048231511,6.67300622842696,53.3840498274157,-33.3840498274157,33.3840498274157,0,-1,-1,-1,-1,1,1,1,1,-1,1,-1,1,4,80,0
1,152,1,../static/images/invador2.png,4,20,8,2.5,right,70,1,976,0.497036796959119,0,0,1,2940,624,4.71153846153846,37.6923076923077,6.12469700381393,48.9975760305115,-28.9975760305115,28.9975760305115,0,-1,-1,-1,-1,-1,-1,1,1,1,0,-0,-0,4,20,-1
1,153,1,../static/images/invador2.png,4,20,8,2.5,left,74,1,970,0.467099015380127,0,0,1,2940,626,4.69648562300319,37.5718849840256,5.62144138705085,44.9715310964068,-24.9715310964068,24.9715310964068,0,-1,-1,-1,-1,-1,-1,-1,-1,1,0,-0,-0,2,0,-1
1,154,1,../static/images/invador2.png,4,20,8,2.5,right,70,1,819,-0.286335154357828,0,0,1,2940,628,4.68152866242038,37.4522292993631,5.15953740215557,41.2762992172446,-21.2762992172446,21.2762992172446,0,-1,-1,-1,-1,-1,-1,-1,-1,-1,0,-0,-0,2,0,-1
1,155,1,../static/images/invador3.png,1,80,2,40,left,70,2,876,-0.001926229357408,0,0,1,2940,630,4.66666666666667,9.33333333333333,4.7355872580232,9.4711745160464,70.5288254839536,70.5288254839536,1,1,1,1,-1,-1,-1,-1,-1,-1,0,-0,-0,2,0,-1
1,157,1,../static/images/invador4.png,2,20,2,10,left,74,1,989,0.561901990380268,0,0,1,3020,636,4.74842767295597,9.49685534591195,6.78590196400933,13.5718039280187,6.42819607198133,6.42819607198133,0,-1,1,0,-1,-1,1,1,-1,-1,0,-0,-0,4,80,-1
1,158,1,../static/images/invador2.png,4,20,8,2.5,right,70,1,865,-0.056812162252226,0,0,1,3020,638,4.73354231974922,37.8683385579937,6.22831629469953,49.8265303575962,-29.8265303575962,29.8265303575962,0,-1,-1,-1,-1,1,-1,-1,1,1,0,-0,0,2,0,0
1,159,1,../static/images/invador2.png,4,20,8,2.5,right,70,1,841,-0.176563288568193,0,0,1,3020,640,4.71875,37.75,5.71654646243962,45.732371699517,-25.732371699517,25.732371699517,0,-1,-1,-1,-1,-1,-1,1,-1,-1,0,-0,-0,2,0,-1
1,160,1,../static/images/invador1.png,3,80,8,10,left,70,2,815,-0.30629367541049,0,0,1,3020,642,4.70404984423676,37.6323987538941,5.24682786021025,41.974622881682,38.025377118318,38.025377118318,1,1,-1,0,-1,-1,-1,-1,-1,1,0,-0,-0,2,0,-1
1,161,1,../static/images/invador2.png,4,20,8,2.5,right,70,1,913,0.182690090379707,0,0,1,3100,652,4.75460122699386,38.0368098159509,6.84963561789846,54.7970849431877,-34.7970849431877,34.7970849431877,0,-1,-1,-1,1,-1,-1,-1,-1,-1,1,1,-1,2,0,0
1,163,1,../static/images/invador4.png,2,20,2,10,left,70,2,1038,0.806393873275366,0,0,1,3100,656,4.72560975609756,9.45121951219512,5.77023665655244,11.5404733131049,8.45952668689511,8.45952668689511,1,-1,1,0,1,-1,-1,-1,1,-1,0,0,-0,2,0,0
1,164,1,../static/images/invador2.png,4,20,8,2.5,right,70,1,735,-0.705464096463711,0,0,1,3120,660,4.72727272727273,37.8181818181818,5.52254494239259,44.1803595391407,-24.1803595391407,24.1803595391407,0,-1,-1,-1,-1,1,1,-1,-1,-1,1,-1,1,2,0,0
1,165,1,../static/images/invador2.png,4,20,8,2.5,right,70,1,777,-0.49589962541077,0,0,1,3120,662,4.71299093655589,37.7039274924471,5.06876710499835,40.5501368399868,-20.5501368399868,20.5501368399868,0,-1,-1,-1,-1,-1,-1,1,1,-1,0,-0,-0,4,20,-1
1,167,1,../static/images/invador3.png,1,80,2,40,left,70,2,842,-0.171573658305027,0,0,1,3140,674,4.65875370919881,9.31750741839763,3.78162295928239,7.56324591856478,72.4367540814352,72.4367540814352,1,1,1,1,-1,-1,-1,-1,-1,-1,1,-1,-1,2,0,-1
1,168,1,../static/images/invador2.png,4,20,8,2.5,left,74,1,1079,1.01096871406514,0,0,1,3220,678,4.74926253687316,37.9941002949853,6.62916832290649,53.033346583252,-33.033346583252,33.033346583252,0,-1,-1,-1,1,1,-1,-1,-1,-1,1,1,1,10,20,1
1,169,1,../static/images/invador2.png,4,20,8,2.5,left,74,1,978,0.50701605748545,0,0,1,3220,680,4.73529411764706,37.8823529411765,6.0844611821462,48.6756894571696,-28.6756894571696,28.6756894571696,0,-1,-1,-1,-1,-1,1,1,-1,-1,0,-0,-0,4,80,-1
1,170,1,../static/images/invador2.png,4,20,8,2.5,left,74,1,921,0.222607132485029,0,0,1,3220,682,4.72140762463343,37.7712609970675,5.58451167231979,44.6760933785583,-24.6760933785583,24.6760933785583,0,-1,-1,-1,-1,-1,-1,-1,1,1,0,-0,-0,2,0,-1
1,171,1,../static/images/invador4.png,2,20,2,10,right,70,1,783,-0.465961843831778,0,0,1,3220,684,4.70760233918129,9.41520467836257,5.12564213734951,10.251284274699,9.74871572530097,9.74871572530097,0,-1,1,0,-1,-1,-1,-1,-1,-1,0,-0,-0,2,0,-1
1,172,1,../static/images/invador2.png,4,20,8,2.5,right,70,1,969,0.462109385116962,0,0,1,3220,686,4.69387755102041,37.5510204081633,4.70447710771092,37.6358168616874,-17.6358168616874,17.6358168616874,0,-1,-1,-1,-1,1,-1,-1,-1,-1,0,-0,0,2,0,0
1,173,1,../static/images/invador1.png,3,80,8,10,right,70,1,818,-0.291324784620994,0,0,1,3220,688,4.68023255813953,37.4418604651163,4.3179184702935,34.543347762348,45.456652237652,45.456652237652,0,1,-1,0,-1,-1,-1,1,-1,-1,0,-0,-0,2,0,-1
1,174,1,../static/images/invador3.png,1,80,2,40,left,70,2,965,0.442150864064301,0,0,1,3220,690,4.66666666666667,9.33333333333333,3.96312267851031,7.92624535702062,72.0737546429794,72.0737546429794,1,1,1,1,1,-1,-1,-1,-1,1,0,0,-0,2,0,0
1,176,1,../static/images/invador4.png,2,20,2,10,left,74,1,918,0.207638241695533,0,0,1,3380,698,4.84240687679083,9.68481375358166,9.02686895937813,18.0537379187563,1.94626208124373,1.94626208124373,0,-1,1,0,1,1,1,1,1,-1,1,1,1,4,80,1
1,177,1,../static/images/invador2.png,4,20,8,2.5,right,70,1,971,0.472088645643293,0,0,1,3380,700,4.82857142857143,38.6285714285714,8.28514696027148,66.2811756821718,-46.2811756821718,46.2811756821718,0,-1,-1,-1,-1,1,1,1,1,1,0,-0,0,4,80,0
1,178,1,../static/images/invador2.png,4,20,8,2.5,left,74,1,947,0.352337519327326,0,0,1,3380,702,4.81481481481481,38.5185185185185,7.60437095765979,60.8349676612783,-40.8349676612783,40.8349676612783,0,-1,-1,-1,-1,-1,-1,1,1,1,0,-0,-0,2,0,-1
1,179,1,../static/images/invador2.png,4,20,8,2.5,left,74,1,871,-0.0268743806732344,0,0,1,3380,704,4.80113636363636,38.4090909090909,6.9795331258439,55.8362650067512,-35.8362650067512,35.8362650067512,0,-1,-1,-1,-1,-1,-1,-1,-1,1,0,-0,-0,2,0,-1
1,180,1,../static/images/invador2.png,4,20,8,2.5,left,74,1,880,0.0180322916952531,0,0,1,3380,706,4.78753541076487,38.300283286119,6.40603712338407,51.2482969870726,-31.2482969870726,31.2482969870726,0,-1,-1,-1,-1,-1,-1,-1,-1,-1,0,-0,-0,2,0,-1
1,181,1,../static/images/invador1.png,3,80,8,10,left,70,2,934,0.287472325906178,0,0,1,3380,708,4.77401129943503,38.1920903954802,5.87966428215971,47.0373142572777,32.9626857427223,32.9626857427223,1,1,-1,0,-1,-1,-1,-1,-1,-1,0,-0,-0,2,0,-1
1,182,1,../static/images/invador2.png,4,20,8,2.5,left,74,1,897,0.102856006169063,0,0,1,3460,718,4.81894150417827,38.5515320334262,7.24162699461777,57.9330159569422,-37.9330159569422,37.9330159569422,0,-1,-1,-1,1,-1,-1,-1,-1,-1,1,1,-1,2,0,0
1,183,1,../static/images/invador4.png,2,20,2,10,left,74,1,823,-0.266376633305167,0,0,1,3460,720,4.80555555555556,9.61111111111111,6.64659519838766,13.2931903967753,6.70680960322468,6.70680960322468,0,-1,1,0,-1,-1,1,-1,-1,-1,0,-0,-0,10,80,-1
1,184,1,../static/images/invador1.png,3,80,8,10,right,74,2,1055,0.891217587749176,0,0,1,3460,722,4.79224376731302,38.3379501385042,6.10045612181682,48.8036489745345,31.1963510254655,31.1963510254655,1,1,-1,0,-1,1,-1,-1,1,-1,0,-0,0,2,0,0
1,186,1,../static/images/invador2.png,4,20,8,2.5,left,74,1,988,0.556912360117102,0,0,1,3540,734,4.82288828337875,38.58310626703,6.77212046232239,54.1769636985791,-34.1769636985791,34.1769636985791,0,-1,-1,-1,-1,-1,1,-1,-1,1,0,-0,-0,10,80,-1
1,187,1,../static/images/invador2.png,4,20,8,2.5,right,70,1,1029,0.761487200906878,0,0,1,3540,736,4.80978260869565,38.4782608695652,6.21566719484847,49.7253375587877,-29.7253375587877,29.7253375587877,0,-1,-1,-1,-1,-1,-1,-1,1,-1,0,-0,-0,2,0,-1
1,189,1,../static/images/invador1.png,3,80,8,10,left,74,1,925,0.24256565353769,0,0,1,3620,742,4.87870619946092,39.0296495956873,8.16996718902389,65.3597375121911,14.6402624878089,14.6402624878089,0,1,-1,0,1,1,-1,-1,-1,-1,1,1,1,2,0,1
1,192,1,../static/images/invador2.png,4,20,8,2.5,right,70,1,868,-0.0418432714627302,0,0,1,3640,756,4.81481481481481,38.5185185185185,5.08912639541593,40.7130111633274,-20.7130111633274,20.7130111633274,0,-1,-1,-1,-1,1,-1,-1,1,-1,0,-0,0,10,20,0
1,194,1,../static/images/invador2.png,4,20,8,2.5,left,74,1,867,-0.0468329017258954,0,0,1,3640,760,4.78947368421053,38.3157894736842,4.28715705692783,34.2972564554226,-14.2972564554226,14.2972564554226,0,-1,-1,-1,1,1,-1,-1,-1,1,0,0,0,2,0,1
1,195,1,../static/images/invador2.png,4,20,8,2.5,left,74,1,902,0.127804157484889,0,0,1,3640,762,4.77690288713911,38.2152230971129,3.93488887655892,31.4791110124714,-11.4791110124714,11.4791110124714,0,-1,-1,-1,-1,-1,1,1,-1,-1,0,-0,-0,2,0,-1
1,196,1,../static/images/invador1.png,3,80,8,10,left,70,2,1069,0.961072411433489,0,0,1,3640,764,4.76439790575916,38.1151832460733,3.61156595507664,28.8925276406131,51.1074723593869,51.1074723593869,1,1,-1,0,-1,-1,-1,-1,1,1,0,-0,-0,2,0,-1
1,197,1,../static/images/invador4.png,2,20,2,10,right,70,1,874,-0.0119054898837385,0,0,1,3720,774,4.8062015503876,9.61240310077519,5.83672210145556,11.6734442029111,8.32655579708887,8.32655579708887,0,-1,1,0,1,-1,-1,-1,-1,-1,1,1,-1,2,0,0
1,199,1,../static/images/invador2.png,4,20,8,2.5,left,70,2,1226,1.74444436275044,0,0,1,3720,778,4.78149100257069,38.2519280205656,4.91694298831357,39.3355439065086,-19.3355439065086,19.3355439065086,1,-1,-1,-1,-1,-1,-1,1,1,-1,0,-0,-0,2,0,-1
1,200,1,../static/images/invador3.png,1,80,2,40,right,74,2,808,-0.341221087252646,0,0,1,3740,788,4.74619289340102,9.49238578680203,3.94556329183224,7.89112658366449,72.1088734163355,72.1088734163355,1,1,1,1,-1,-1,-1,-1,-1,1,1,-1,-1,2,0,-1
1,201,1,../static/images/invador2.png,4,20,8,2.5,right,70,1,987,0.551922729853937,0,0,1,3820,792,4.82323232323232,38.5858585858586,6.76050366925683,54.0840293540547,-34.0840293540547,34.0840293540547,0,-1,-1,-1,1,1,-1,-1,-1,-1,1,1,1,10,20,1
1,203,1,../static/images/invador2.png,4,20,8,2.5,right,70,1,916,0.197658981169203,0,0,1,3840,804,4.77611940298507,38.2089552238806,4.74341429661786,37.9473143729429,-17.9473143729429,17.9473143729429,0,-1,-1,-1,-1,-1,-1,-1,1,1,1,-1,-1,2,0,-1
1,204,1,../static/images/invador1.png,3,80,8,10,right,74,2,1034,0.786435352222705,0,0,1,3840,806,4.76426799007444,38.1141439205955,4.35365625864133,34.8292500691306,45.1707499308694,45.1707499308694,1,1,-1,0,-1,-1,-1,-1,-1,-1,0,-0,-0,10,20,-1
1,206,1,../static/images/invador4.png,2,20,2,10,left,70,2,1038,0.806393873275366,0,0,1,4000,820,4.8780487804878,9.75609756097561,8.64378830986677,17.2875766197335,2.71242338026646,2.71242338026646,1,-1,1,0,1,1,1,-1,-1,-1,1,1,1,10,80,1
1,207,1,../static/images/invador2.png,4,20,8,2.5,left,74,1,1034,0.786435352222705,0,0,1,4020,824,4.87864077669903,39.0291262135922,7.82459530287271,62.5967624229816,-42.5967624229816,42.5967624229816,0,-1,-1,-1,-1,1,1,1,1,-1,1,-1,1,4,80,0
1,209,1,../static/images/invador2.png,4,20,8,2.5,left,70,2,0,-4.37284233989019,0,0,1,4020,828,4.85507246376812,38.8405797101449,6.59155744304784,52.7324595443827,-32.7324595443827,32.7324595443827,1,-1,-1,-1,-1,-1,-1,-1,-1,1,0,-0,-0,2,0,-1
1,210,1,../static/images/invador2.png,4,20,8,2.5,left,74,1,1020,0.716580528538391,0,0,1,4040,838,4.82100238663485,38.5680190930788,4.98285255461392,39.8628204369113,-19.8628204369113,19.8628204369113,0,-1,-1,-1,-1,-1,-1,-1,-1,-1,1,-1,-1,2,0,-1
1,213,-1,../static/images/invador2.png,4,20,8,2.5,left,74,1,987,0.551922729853937,0,0,1,4120,846,4.86997635933806,38.9598108747045,6.96243882430528,55.6995105944422,-35.6995105944422,35.6995105944422,0,-1,-1,-1,1,1,-1,1,-1,-1,1,1,1,2,0,1
1,214,-1,../static/images/invador3.png,1,80,2,40,right,74,2,1055,0.891217587749176,0,0,1,4120,848,4.85849056603774,9.71698113207547,6.39034743063811,12.7806948612762,67.2193051387238,67.2193051387238,1,1,1,1,-1,-1,1,1,-1,1,0,-0,-0,4,80,-1
1,215,-1,../static/images/invador1.png,3,80,8,10,right,70,1,867,-0.0468329017258954,0,0,1,4200,852,4.92957746478873,39.4366197183099,8.71906119215461,69.7524895372369,10.2475104627631,10.2475104627631,0,1,-1,0,1,1,-1,-1,1,1,1,1,1,2,0,1
1,216,-1,../static/images/invador3.png,1,80,2,40,right,74,2,1061,0.921155369328167,0,0,1,4200,854,4.91803278688525,9.83606557377049,8.00263121772151,16.005262435443,63.994737564557,63.994737564557,1,1,1,1,1,-1,1,1,-1,-1,0,0,-0,4,80,0
1,218,-1,../static/images/invador4.png,2,20,2,10,left,74,1,1198,1.60473471538181,0,0,1,4360,862,5.05800464037123,10.1160092807425,11.619377253918,23.238754507836,-3.23875450783602,3.23875450783602,0,-1,1,0,1,1,1,1,1,-1,1,1,1,4,80,1
1,219,-1,../static/images/invador3.png,1,80,2,40,right,74,2,753,-0.615650751726736,0,0,1,4360,864,5.0462962962963,10.0925925925926,10.6646333926817,21.3292667853635,58.6707332146365,58.6707332146365,1,1,1,1,-1,1,1,1,1,1,0,-0,0,4,80,0
1,220,-1,../static/images/invador3.png,1,80,2,40,left,70,2,1062,0.926144999591332,0,0,1,4440,868,5.11520737327189,10.2304147465438,12.1432632691797,24.2865265383593,55.7134734616407,55.7134734616407,1,1,1,1,1,1,-1,1,1,1,1,1,1,2,0,1
1,222,-1,../static/images/invador2.png,4,20,8,2.5,right,70,1,1092,1.07583390748629,0,0,1,4600,876,5.25114155251142,42.0091324200913,14.2767854098466,114.214283278773,-94.2142832787726,94.2142832787726,0,-1,-1,-1,1,1,1,1,1,1,1,1,1,4,80,1
1,223,-1,../static/images/invador1.png,3,80,8,10,left,70,2,1159,1.41013913511836,0,0,1,4600,878,5.23917995444191,41.9134396355353,13.103686978634,104.829495829072,-24.8294958290719,24.8294958290719,1,1,-1,0,-1,-1,1,1,1,1,0,-0,-0,4,80,-1
1,224,-1,../static/images/invador3.png,1,80,2,40,left,70,2,1082,1.02593760485464,0,0,1,4680,888,5.27027027027027,10.5405405405405,11.7163293095055,23.432658619011,56.567341380989,56.567341380989,1,1,1,1,1,-1,-1,-1,1,1,1,1,-1,2,0,0
1,226,-1,../static/images/invador3.png,1,80,2,40,right,74,2,988,0.556912360117102,0,0,1,4840,902,5.36585365853659,10.7317073170732,11.6433043700533,23.2866087401066,56.7133912598934,56.7133912598934,1,1,1,1,1,-1,1,1,1,-1,1,1,-1,4,80,0
1,228,-1,../static/images/invador3.png,1,80,2,40,right,74,2,966,0.447140494327466,0,0,1,4920,908,5.41850220264317,10.8370044052863,11.8650799776387,23.7301599552775,56.2698400447225,56.2698400447225,1,1,1,1,-1,-1,1,1,1,-1,0,-0,-0,4,80,-1
1,229,-1,../static/images/invador4.png,2,20,2,10,right,70,1,947,0.352337519327326,0,0,1,5000,912,5.48245614035088,10.9649122807018,13.1049611354595,26.2099222709191,-6.20992227091905,6.20992227091905,0,-1,1,0,1,1,-1,-1,1,1,1,1,1,2,0,1
1,230,-1,../static/images/invador3.png,1,80,2,40,right,74,2,968,0.457119754853797,0,0,1,5000,914,5.47045951859956,10.9409190371991,12.0281494507713,24.0562989015426,55.9437010984575,55.9437010984575,1,1,1,1,-1,1,1,1,-1,-1,0,-0,0,4,80,0
1,231,-1,../static/images/invador3.png,1,80,2,40,left,70,2,1061,0.921155369328167,0,0,1,5080,918,5.53376906318083,11.0675381263617,13.235598821744,26.4711976434881,53.5288023565119,53.5288023565119,1,1,1,1,1,1,-1,1,1,1,1,1,1,2,0,1
1,233,-1,../static/images/invador3.png,1,80,2,40,right,74,2,960,0.417202712748475,0,0,1,5180,932,5.55793991416309,11.1158798283262,9.69747261284874,19.3949452256975,60.6050547743025,60.6050547743025,1,1,1,1,-1,-1,1,1,1,1,1,-1,-1,4,80,-1
1,234,-1,../static/images/invador3.png,1,80,2,40,right,74,2,946,0.347347889064161,0,0,1,5260,936,5.61965811965812,11.2393162393162,11.3684545688423,22.7369091376845,57.2630908623155,57.2630908623155,1,1,1,1,1,1,-1,-1,1,1,1,1,1,10,20,1
1,235,-1,../static/images/invador3.png,1,80,2,40,right,74,2,952,0.377285670643153,0,0,1,5340,940,5.68085106382979,11.3617021276596,12.7071062021665,25.4142124043329,54.5857875956671,54.5857875956671,1,1,1,1,1,1,1,1,-1,-1,1,1,1,4,80,1
1,238,-1,../static/images/invador4.png,2,20,2,10,left,74,1,1100,1.11575094959161,0,0,1,5520,958,5.76200417536534,11.5240083507307,10.9948483671307,21.9896967342615,-1.98969673426145,1.98969673426145,0,-1,1,0,1,-1,-1,1,1,1,1,1,-1,4,20,0
1,239,-1,../static/images/invador3.png,1,80,2,40,right,74,2,801,-0.376148499094803,0,0,1,5520,960,5.75,11.5,10.0914209497791,20.1828418995582,59.8171581004418,59.8171581004418,1,1,1,1,-1,1,1,-1,-1,1,0,-0,0,10,80,0
1,240,-1,../static/images/invador3.png,1,80,2,40,left,70,2,1013,0.681653116696234,0,0,1,5600,964,5.80912863070539,11.6182572614108,11.6840531800574,23.3681063601149,56.6318936398851,56.6318936398851,1,1,1,1,1,1,-1,1,1,-1,1,1,1,2,0,1
1,242,-1,../static/images/invador2.png,4,20,8,2.5,left,74,1,993,0.581860511432929,0,0,1,5680,970,5.85567010309278,46.8453608247423,11.8950421860642,95.1603374885134,-75.1603374885134,75.1603374885134,0,-1,-1,-1,1,1,1,1,1,1,0,0,0,4,80,1
1,243,-1,../static/images/invador1.png,3,80,8,10,left,74,1,1206,1.64465175748713,0,0,1,5680,972,5.84362139917695,46.7489711934156,10.9176474205692,87.3411793645534,-7.34117936455335,7.34117936455335,0,1,-1,0,-1,-1,1,1,1,1,0,-0,-0,2,0,-1
1,244,-1,../static/images/invador3.png,1,80,2,40,left,70,2,889,0.0629389640637405,0,0,1,5680,974,5.83162217659138,11.6632443531828,10.0205634696702,20.0411269393404,59.9588730606596,59.9588730606596,1,1,1,1,1,-1,-1,-1,1,1,0,0,-0,2,0,0
1,245,-1,../static/images/invador3.png,1,80,2,40,right,74,2,1068,0.956082781170324,0,0,1,5760,978,5.88957055214724,11.7791411042945,11.6272880659036,23.2545761318072,56.7454238681928,56.7454238681928,1,1,1,1,1,1,1,-1,-1,-1,1,1,1,2,0,1
1,246,-1,../static/images/invador2.png,4,20,8,2.5,right,70,1,999,0.61179829301192,0,0,1,5840,982,5.94704684317719,47.5763747454175,12.9144620520351,103.315696416281,-83.3156964162807,83.3156964162807,0,-1,-1,-1,1,1,1,1,1,-1,1,1,1,4,80,1
1,247,-1,../static/images/invador3.png,1,80,2,40,right,74,2,811,-0.326252196463151,0,0,1,5840,984,5.9349593495935,11.869918699187,11.8533033431041,23.7066066862083,56.2933933137917,56.2933933137917,1,1,1,1,-1,-1,1,1,1,1,0,-0,-0,4,80,-1
1,248,-1,../static/images/invador3.png,1,80,2,40,right,74,2,879,0.0130426614320878,0,0,1,5920,988,5.9919028340081,11.9838056680162,13.0955266762792,26.1910533525585,53.8089466474415,53.8089466474415,1,1,1,1,1,1,-1,-1,1,1,1,1,1,2,0,1
1,249,-1,../static/images/invador1.png,3,80,8,10,left,70,2,1212,1.67458953906612,0,0,1,6000,992,6.04838709677419,48.3870967741936,14.0906925953029,112.725540762423,-32.7255407624233,32.7255407624233,1,1,-1,0,1,1,1,1,-1,-1,1,1,1,4,80,1
1,250,-1,../static/images/invador4.png,2,20,2,10,left,74,1,1125,1.24049170617074,0,0,1,6080,1002,6.06786427145709,12.1357285429142,12.3277000794051,24.6554001588102,-4.65540015881019,4.65540015881019,0,-1,1,0,1,-1,1,1,1,1,1,1,-1,4,80,0
1,251,-1,../static/images/invador3.png,1,80,2,40,left,70,2,856,-0.101718834620713,0,0,1,6080,1004,6.05577689243028,12.1115537848606,11.3147545732245,22.6295091464489,57.3704908535511,57.3704908535511,1,1,1,1,-1,1,1,-1,1,1,0,-0,0,10,80,0
1,252,-1,../static/images/invador2.png,4,20,8,2.5,left,74,1,1070,0.966062041696655,0,0,1,6160,1008,6.11111111111111,48.8888888888889,12.6640862362204,101.312689889763,-81.3126898897634,81.3126898897634,0,-1,-1,-1,1,1,-1,1,1,-1,1,1,1,2,0,1
1,253,-1,../static/images/invador1.png,3,80,8,10,right,70,1,1010,0.666684225906738,0,0,1,6160,1010,6.0990099009901,48.7920792079208,11.6235004691888,92.9880037535104,-12.9880037535104,12.9880037535104,0,1,-1,0,-1,-1,1,1,-1,1,0,-0,-0,4,80,-1
1,255,-1,../static/images/invador3.png,1,80,2,40,left,70,2,791,-0.426044801726456,0,0,1,6160,1014,6.07495069033531,12.1499013806706,9.79181261985811,19.5836252397162,60.4163747602838,60.4163747602838,1,1,1,1,1,1,1,-1,-1,-1,0,0,0,2,0,1
1,256,-1,../static/images/invador3.png,1,80,2,40,left,70,2,996,0.596829402222425,0,0,1,6240,1018,6.12966601178782,12.2593320235756,11.4440319286204,22.8880638572408,57.1119361427592,57.1119361427592,1,1,1,1,1,1,1,1,1,-1,1,1,1,2,0,1
1,258,-1,../static/images/invador3.png,1,80,2,40,left,70,2,896,0.0978663759058974,0,0,1,6340,1026,6.17933723196881,12.3586744639376,11.1282919716807,22.2565839433613,57.7434160566387,57.7434160566387,1,1,1,1,-1,1,1,1,1,1,1,-1,1,4,80,0
1,259,-1,../static/images/invador3.png,1,80,2,40,right,74,2,946,0.347347889064161,0,0,1,6420,1030,6.23300970873786,12.4660194174757,12.5147079229387,25.0294158458775,54.9705841541225,54.9705841541225,1,1,1,1,1,1,-1,1,1,1,1,1,1,4,20,1
1,260,-1,../static/images/invador1.png,3,80,8,10,right,70,1,972,0.477078275906458,0,0,1,6500,1034,6.2862669245648,50.2901353965184,13.6253889634858,109.003111707887,-29.0031117078867,29.0031117078867,0,1,-1,0,1,1,1,1,-1,1,1,1,1,4,80,1
1,261,-1,../static/images/invador3.png,1,80,2,40,right,74,2,860,-0.0817603135680523,0,0,1,6500,1036,6.27413127413127,12.5482625482625,12.5058146364316,25.0116292728632,54.9883707271368,54.9883707271368,1,1,1,1,1,-1,1,1,1,1,0,0,-0,4,80,0
1,266,-1,../static/images/invador3.png,1,80,2,40,right,74,2,988,0.556912360117102,0,0,1,6780,1062,6.38418079096045,12.7683615819209,9.61064354175978,19.2212870835196,60.7787129164804,60.7787129164804,1,1,1,1,-1,-1,1,1,1,1,1,-1,-1,4,80,-1
1,267,-1,../static/images/invador3.png,1,80,2,40,left,70,2,1048,0.856290175907019,0,0,1,6860,1066,6.43527204502814,12.8705440900563,11.2988943456356,22.5977886912712,57.4022113087288,57.4022113087288,1,1,1,1,1,1,-1,-1,1,1,1,1,1,10,20,1
1,268,-1,../static/images/invador1.png,3,80,8,10,right,70,1,1072,0.976041302222985,0,0,1,6940,1070,6.48598130841121,51.8878504672897,12.6513803422456,101.211042737965,-21.2110427379647,21.2110427379647,0,1,-1,0,1,1,1,1,-1,-1,1,1,1,4,80,1
1,269,-1,../static/images/invador3.png,1,80,2,40,left,70,2,895,0.0928767456427322,0,0,1,6940,1072,6.47388059701493,12.9477611940299,11.6118385962496,23.2236771924992,56.7763228075008,56.7763228075008,1,1,1,1,1,-1,1,1,1,1,0,0,-0,4,80,0
1,270,-1,../static/images/invador3.png,1,80,2,40,right,74,2,970,0.467099015380127,0,0,1,7020,1076,6.52416356877323,13.0483271375465,12.9020852231219,25.8041704462438,54.1958295537562,54.1958295537562,1,1,1,1,1,1,1,-1,1,1,1,1,1,2,0,1
1,271,-1,../static/images/invador2.png,4,20,8,2.5,left,74,1,1251,1.86918511932957,0,0,1,7100,1080,6.57407407407407,52.5925925925926,13.9357234071002,111.485787256802,-91.4857872568018,91.4857872568018,0,-1,-1,-1,1,1,1,1,1,-1,1,1,1,4,80,1
1,272,-1,../static/images/invador4.png,2,20,2,10,right,70,1,1023,0.731549419327887,0,0,1,7100,1082,6.56192236598891,13.1238447319778,12.7906494428024,25.5812988856049,-5.58129888560487,5.58129888560487,0,-1,1,0,-1,-1,1,1,1,1,0,-0,-0,4,80,-1
1,273,-1,../static/images/invador3.png,1,80,2,40,right,74,2,860,-0.0817603135680523,0,0,1,7100,1084,6.54981549815498,13.09963099631,11.7396641989398,23.4793283978797,56.5206716021203,56.5206716021203,1,1,1,1,-1,1,-1,-1,1,1,0,-0,0,2,0,0
1,274,-1,../static/images/invador3.png,1,80,2,40,right,74,2,977,0.502026427222284,0,0,1,7180,1088,6.59926470588235,13.1985294117647,13.0044884544723,26.0089769089446,53.9910230910554,53.9910230910554,1,1,1,1,1,1,-1,1,-1,-1,1,1,1,2,0,1
1,275,-1,../static/images/invador2.png,4,20,8,2.5,left,74,1,994,0.586850141696094,0,0,1,7260,1092,6.64835164835165,53.1868131868132,14.0177603509542,112.142082807634,-92.1420828076337,92.1420828076337,0,-1,-1,-1,1,1,1,1,-1,1,1,1,1,4,80,1
1,277,-1,../static/images/invador4.png,2,20,2,10,right,70,1,1060,0.916165739065002,0,0,1,7340,1104,6.64855072463768,13.2971014492754,11.5690675767636,23.1381351535273,-3.13813515352726,3.13813515352726,0,-1,1,0,1,-1,-1,-1,1,1,1,1,-1,2,0,0
1,280,-1,../static/images/invador3.png,1,80,2,40,left,70,2,874,-0.0119054898837385,0,0,1,7500,1114,6.73249551166966,13.4649910233393,13.2981833410031,26.5963666820061,53.4036333179939,53.4036333179939,1,1,1,1,1,1,1,1,-1,1,1,1,1,4,80,1
1,283,-1,../static/images/invador1.png,3,80,8,10,right,70,1,1107,1.15067836143377,0,0,1,7660,1124,6.81494661921708,54.5195729537367,14.0797732989771,112.638186391816,-32.6381863918165,32.6381863918165,0,1,-1,0,1,1,1,1,1,1,1,1,1,2,0,1
1,284,-1,../static/images/invador4.png,2,20,2,10,left,74,1,1090,1.06585464695996,0,0,1,7660,1126,6.80284191829485,13.6056838365897,12.9228630075702,25.8457260151404,-5.84572601514038,5.84572601514038,0,-1,1,0,1,-1,1,1,1,1,0,0,-0,4,80,0
1,285,-1,../static/images/invador2.png,4,20,8,2.5,left,74,1,1134,1.28539837853923,0,0,1,7660,1128,6.79078014184397,54.3262411347518,11.861014006849,94.8881120547924,-74.8881120547924,74.8881120547924,0,-1,-1,-1,-1,1,1,-1,1,1,0,-0,0,2,0,0
1,288,-1,../static/images/invador3.png,1,80,2,40,right,74,2,1027,0.751507940380548,0,0,1,7740,1136,6.81338028169014,13.6267605633803,11.6043233709996,23.2086467419992,56.7913532580008,56.7913532580008,1,1,1,1,1,1,1,1,-1,-1,1,1,1,2,0,1
1,289,-1,../static/images/invador4.png,2,20,2,10,right,70,1,946,0.347347889064161,0,0,1,7820,1140,6.85964912280702,13.719298245614,12.8960646502967,25.7921293005934,-5.79212930059341,5.79212930059341,0,-1,1,0,1,1,1,1,1,1,1,1,1,4,80,1
1,290,-1,../static/images/invador3.png,1,80,2,40,left,70,2,818,-0.291324784620994,0,0,1,7820,1142,6.8476357267951,13.6952714535902,11.8364176236176,23.6728352472352,56.3271647527648,56.3271647527648,1,1,1,1,-1,1,1,1,1,1,0,-0,0,4,80,0
1,291,-1,../static/images/invador1.png,3,80,8,10,left,74,1,969,0.462109385116962,0,0,1,7900,1146,6.8935427574171,55.1483420593368,13.0819992435685,104.655993948548,-24.6559939485484,24.6559939485484,0,1,-1,0,1,1,-1,1,1,1,1,1,1,2,0,1
1,292,-1,../static/images/invador3.png,1,80,2,40,left,70,2,950,0.367306410116822,0,0,1,7900,1148,6.8815331010453,13.7630662020906,12.0070742972869,24.0141485945737,55.9858514054263,55.9858514054263,1,1,1,1,1,-1,1,1,-1,1,0,0,-0,4,80,0
1,293,-1,../static/images/invador2.png,4,20,8,2.5,right,70,1,892,0.0779078548532363,0,0,1,7980,1152,6.92708333333333,55.4166666666667,13.218715163286,105.749721306288,-85.7497213062884,85.7497213062884,0,-1,-1,-1,1,1,1,-1,1,1,1,1,1,2,0,1
1,295,-1,../static/images/invador4.png,2,20,2,10,left,74,1,914,0.187679720642872,0,0,1,8060,1158,6.96027633851468,13.9205526770294,13.3192410652997,26.6384821305995,-6.63848213059947,6.63848213059947,0,-1,1,0,1,1,-1,-1,1,1,1,1,1,2,0,1
1,296,-1,../static/images/invador2.png,4,20,8,2.5,left,74,1,1138,1.30535689959189,0,0,1,8060,1160,6.94827586206897,55.5862068965517,12.2248223743899,97.7985789951189,-77.7985789951189,77.7985789951189,0,-1,-1,-1,-1,1,1,1,-1,-1,0,-0,0,4,80,0
1,297,-1,../static/images/invador1.png,3,80,8,10,left,74,1,882,0.0280115522215836,0,0,1,8060,1162,6.93631669535284,55.4905335628227,11.220330148895,89.76264119116,-9.76264119116004,9.76264119116004,0,1,-1,0,-1,-1,-1,1,1,1,0,-0,-0,2,0,-1
1,298,-1,../static/images/invador3.png,1,80,2,40,right,74,2,908,0.157741939063881,0,0,1,8060,1164,6.92439862542955,13.8487972508591,10.298375288785,20.5967505775699,59.4032494224301,59.4032494224301,1,1,1,1,1,-1,-1,-1,-1,1,0,0,-0,2,0,0
1,299,-1,../static/images/invador3.png,1,80,2,40,left,70,2,936,0.297451586432508,0,0,1,8140,1168,6.96917808219178,13.9383561643836,11.8498477674496,23.6996955348993,56.3003044651007,56.3003044651007,1,1,1,1,1,1,1,-1,-1,-1,1,1,1,2,0,1
1,300,-1,../static/images/invador3.png,1,80,2,40,right,74,2,918,0.207638241695533,0,0,1,8220,1172,7.01365187713311,14.0273037542662,13.0927583567427,26.1855167134854,53.8144832865146,53.8144832865146,1,1,1,1,1,1,1,1,1,-1,1,1,1,4,80,1
1,301,-1,../static/images/invador1.png,3,80,8,10,right,70,1,879,0.0130426614320878,0,0,1,8300,1176,7.0578231292517,56.4625850340136,14.0884748481538,112.70779878523,-32.7077987852303,32.7077987852303,0,1,-1,0,1,1,1,1,1,1,1,1,1,4,80,1
1,302,-1,../static/images/invador3.png,1,80,2,40,right,74,2,959,0.41221308248531,0,0,1,8300,1178,7.04584040747029,14.0916808149406,12.9308495657041,25.8616991314082,54.1383008685918,54.1383008685918,1,1,1,1,1,-1,1,1,1,1,0,0,-0,4,80,0
1,304,-1,../static/images/invador2.png,4,20,8,2.5,left,74,1,1019,0.711590898275226,0,0,1,8380,1184,7.0777027027027,56.6216216216216,12.8117995874958,102.494396699966,-82.494396699966,82.494396699966,0,-1,-1,-1,1,1,1,1,1,-1,0,0,0,4,80,1
1,305,-1,../static/images/invador3.png,1,80,2,40,right,74,2,997,0.60181903248559,0,0,1,8380,1186,7.06576728499157,14.1315345699831,11.759076473318,23.518152946636,56.481847053364,56.481847053364,1,1,1,1,-1,-1,1,1,1,1,0,-0,-0,2,0,-1
1,306,-1,../static/images/invador4.png,2,20,2,10,right,70,1,898,0.107845636432228,0,0,1,8460,1190,7.10924369747899,14.218487394958,13.0200399526256,26.0400799052512,-6.04007990525125,6.04007990525125,0,-1,1,0,1,1,-1,-1,1,1,1,1,1,2,0,1
1,307,-1,../static/images/invador3.png,1,80,2,40,right,74,2,1129,1.26045022722341,0,0,1,8460,1192,7.09731543624161,14.1946308724832,11.9502060926717,23.9004121853433,56.0995878146567,56.0995878146567,1,1,1,1,-1,1,1,1,-1,-1,0,-0,0,4,80,0
1,309,-1,../static/images/invador1.png,3,80,8,10,left,74,1,1117,1.20057466406542,0,0,1,8540,1198,7.12854757929883,57.0283806343907,12.0907418651462,96.7259349211696,-16.7259349211696,16.7259349211696,0,1,-1,0,-1,-1,1,1,-1,1,0,-0,-0,4,80,-1
1,310,-1,../static/images/invador3.png,1,80,2,40,left,70,2,953,0.382275300906318,0,0,1,8540,1200,7.11666666666667,14.2333333333333,11.0972668000649,22.1945336001298,57.8054663998702,57.8054663998702,1,1,1,1,1,-1,-1,-1,1,1,0,0,-0,2,0,0
1,311,-1,../static/images/invador3.png,1,80,2,40,left,70,2,1082,1.02593760485464,0,0,1,8620,1204,7.15946843853821,14.3189368770764,12.4898531382963,24.9797062765926,55.0202937234074,55.0202937234074,1,1,1,1,1,1,1,-1,-1,-1,1,1,1,2,0,1
1,312,-1,../static/images/invador4.png,2,20,2,10,left,74,1,957,0.402233821958979,0,0,1,8700,1208,7.20198675496689,14.4039735099338,13.6054773791996,27.2109547583992,-7.2109547583992,7.2109547583992,0,-1,1,0,1,1,1,1,1,-1,1,1,1,4,80,1
1,313,-1,../static/images/invador3.png,1,80,2,40,right,74,2,965,0.442150864064301,0,0,1,8700,1210,7.1900826446281,14.3801652892562,12.487539152123,24.9750783042459,55.0249216957541,55.0249216957541,1,1,1,1,-1,1,1,1,1,1,0,-0,0,4,80,0
1,314,-1,../static/images/invador3.png,1,80,2,40,left,70,2,844,-0.161594397778697,0,0,1,8780,1214,7.23228995057661,14.4645799011532,13.6036236061177,27.2072472122354,52.7927527877646,52.7927527877646,1,1,1,1,1,1,-1,1,1,1,1,1,1,2,0,1
1,315,-1,../static/images/invador2.png,4,20,8,2.5,right,70,1,1132,1.2754191180129,0,0,1,8860,1218,7.27422003284072,58.1937602627258,14.4977375562468,115.981900449974,-95.981900449974,95.981900449974,0,-1,-1,-1,1,1,1,1,-1,1,1,1,1,4,80,1
1,317,-1,../static/images/invador3.png,1,80,2,40,left,70,2,868,-0.0418432714627302,0,0,1,8940,1224,7.30392156862745,14.6078431372549,14.2596939402375,28.5193878804751,51.4806121195249,51.4806121195249,1,1,1,1,1,1,-1,-1,1,1,1,1,1,2,0,1
1,318,-1,../static/images/invador4.png,2,20,2,10,left,74,1,892,0.0779078548532363,0,0,1,9020,1228,7.34527687296417,14.6905537459283,15.0233264898645,30.0466529797289,-10.0466529797289,10.0466529797289,0,-1,1,0,1,1,1,1,-1,-1,1,1,1,4,80,1
1,321,-1,../static/images/invador1.png,3,80,8,10,right,70,1,894,0.0878871153795669,0,0,1,9180,1238,7.41518578352181,59.3214862681745,15.3329264633337,122.663411706669,-42.6634117066693,42.6634117066693,0,1,-1,0,1,1,1,1,-1,1,1,1,1,4,80,1
1,322,-1,../static/images/invador3.png,1,80,2,40,left,70,2,873,-0.0168951201469038,0,0,1,9180,1240,7.40322580645161,14.8064516129032,14.0730467730758,28.1460935461517,51.8539064538483,51.8539064538483,1,1,1,1,1,-1,1,1,1,1,0,0,-0,4,80,0
1,325,-1,../static/images/invador2.png,4,20,8,2.5,right,70,1,989,0.561901990380268,0,0,1,9360,1252,7.47603833865815,59.8083067092652,13.8664084226431,110.931267381145,-90.9312673811451,90.9312673811451,0,-1,-1,-1,1,1,-1,1,1,1,1,1,1,4,20,1
1,327,-1,../static/images/invador3.png,1,80,2,40,left,70,2,933,0.282482695643012,0,0,1,9360,1256,7.45222929936306,14.9044585987261,11.6812722075297,23.3625444150595,56.6374555849405,56.6374555849405,1,1,1,1,1,-1,-1,-1,1,1,0,0,-0,2,0,0
1,329,-1,../static/images/invador3.png,1,80,2,40,right,74,2,1046,0.846310915380688,0,0,1,9520,1264,7.53164556962025,15.0632911392405,13.980285068851,27.960570137702,52.039429862298,52.039429862298,1,1,1,1,1,1,1,1,1,-1,1,1,1,4,80,1
1,330,-1,../static/images/invador3.png,1,80,2,40,left,70,2,1066,0.946103520643994,0,0,1,9600,1268,7.57097791798107,15.1419558359621,14.7994873629934,29.5989747259868,50.4010252740132,50.4010252740132,1,1,1,1,1,1,1,1,1,1,1,1,1,4,80,1
1,331,-1,../static/images/invador4.png,2,20,2,10,right,70,1,1116,1.19558503380226,0,0,1,9680,1272,7.61006289308176,15.2201257861635,15.4557640421899,30.9115280843798,-10.9115280843798,10.9115280843798,0,-1,1,0,1,1,1,1,1,1,1,1,1,4,80,1
1,334,-1,../static/images/invador2.png,4,20,8,2.5,right,74,2,1022,0.726559789064722,0,0,1,9680,1286,7.52721617418351,60.2177293934681,8.48070637215855,67.8456509772684,-47.8456509772684,47.8456509772684,1,-1,-1,-1,1,1,1,-1,-1,1,0,0,0,10,0,1
1,335,-1,../static/images/invador3.png,1,80,2,40,left,70,2,775,-0.5058788859371,0,0,1,9700,1296,7.48456790123457,14.9691358024691,6.1530287073529,12.3060574147058,67.6939425852942,67.6939425852942,1,1,1,1,-1,-1,1,1,1,-1,1,-1,-1,2,0,-1
1,336,-1,../static/images/invador4.png,2,20,2,10,right,70,1,946,0.347347889064161,0,0,1,9780,1300,7.52307692307692,15.0461538461538,8.52894118792316,17.0578823758463,2.94211762415368,2.94211762415368,0,-1,1,0,1,1,-1,-1,1,1,1,1,1,10,20,1
1,337,-1,../static/images/invador3.png,1,80,2,40,left,70,2,941,0.322399737748335,0,0,1,9780,1302,7.51152073732719,15.0230414746544,7.82813304097458,15.6562660819492,64.3437339180508,64.3437339180508,1,1,1,1,-1,1,1,1,-1,-1,0,-0,0,4,80,0
1,338,-1,../static/images/invador3.png,1,80,2,40,left,70,2,887,0.05295970353741,0,0,1,9860,1306,7.54977029096478,15.0995405819296,9.87089532701369,19.7417906540274,60.2582093459726,60.2582093459726,1,1,1,1,1,1,-1,1,1,1,1,1,1,2,0,1
1,340,-1,../static/images/invador3.png,1,80,2,40,right,74,2,1141,1.32032579038139,0,0,1,9940,1312,7.57621951219512,15.1524390243902,10.5618446400354,21.1236892800709,58.8763107199291,58.8763107199291,1,1,1,1,1,-1,1,1,1,1,0,0,-0,4,80,0
1,341,-1,../static/images/invador3.png,1,80,2,40,left,70,2,897,0.102856006169063,0,0,1,10020,1316,7.61398176291793,15.2279635258359,12.0609174777581,24.1218349555163,55.8781650444837,55.8781650444837,1,1,1,1,1,1,1,-1,1,1,1,1,1,2,0,1
1,343,-1,../static/images/invador3.png,1,80,2,40,right,74,2,1004,0.636746444327747,0,0,1,10120,1330,7.60902255639098,15.218045112782,9.11456338531726,18.2291267706345,61.7708732293655,61.7708732293655,1,1,1,1,-1,-1,1,1,1,1,1,-1,-1,4,80,-1
1,344,-1,../static/images/invador4.png,2,20,2,10,right,70,1,929,0.262524174590351,0,0,1,10200,1334,7.64617691154423,15.2923538230885,10.9014762231361,21.8029524462721,-1.80295244627215,1.80295244627215,0,-1,1,0,1,1,-1,-1,1,1,1,1,1,10,20,1
1,345,-1,../static/images/invador3.png,1,80,2,40,left,70,2,1032,0.776456091696374,0,0,1,10200,1336,7.63473053892216,15.2694610778443,10.0057210311835,20.0114420623671,59.9885579376329,59.9885579376329,1,1,1,1,-1,1,1,1,-1,-1,0,-0,0,4,80,0
1,346,-1,../static/images/invador2.png,4,20,8,2.5,left,74,1,1117,1.20057466406542,0,0,1,10280,1340,7.67164179104478,61.3731343283582,11.6153975398261,92.9231803186091,-72.9231803186091,72.9231803186091,0,-1,-1,-1,1,1,-1,1,1,1,1,1,1,2,0,1
1,347,-1,../static/images/invador3.png,1,80,2,40,left,70,2,923,0.23258639301136,0,0,1,10280,1342,7.6602086438152,15.3204172876304,10.6609806847207,21.3219613694414,58.6780386305585,58.6780386305585,1,1,1,1,-1,-1,1,1,-1,1,0,-0,-0,4,80,-1
1,348,-1,../static/images/invador1.png,3,80,8,10,left,74,1,1059,0.911176108801837,0,0,1,10360,1346,7.69687964338782,61.5750371471025,12.1403370236505,97.1226961892037,-17.1226961892037,17.1226961892037,0,1,-1,0,1,1,-1,-1,1,1,1,1,1,2,0,1
1,349,-1,../static/images/invador3.png,1,80,2,40,right,74,2,849,-0.13664624646287,0,0,1,10360,1348,7.68545994065282,15.3709198813056,11.1427868113307,22.2855736226614,57.7144263773386,57.7144263773386,1,1,1,1,1,-1,1,1,-1,-1,0,0,-0,4,80,0
1,350,-1,../static/images/invador2.png,4,20,8,2.5,left,74,1,976,0.497036796959119,0,0,1,10440,1352,7.72189349112426,61.7751479289941,12.526319981766,100.210559854128,-80.2105598541278,80.2105598541278,0,-1,-1,-1,1,1,1,-1,1,1,1,1,1,2,0,1
1,351,-1,../static/images/invador3.png,1,80,2,40,right,74,2,1082,1.02593760485464,0,0,1,10440,1354,7.71048744460857,15.4209748892171,11.4970542263711,22.9941084527422,57.0058915472578,57.0058915472578,1,1,1,1,-1,-1,1,1,1,-1,0,-0,-0,4,80,-1
1,353,-1,../static/images/invador3.png,1,80,2,40,right,74,2,844,-0.161594397778697,0,0,1,10600,1368,7.74853801169591,15.4970760233918,11.5344940361009,23.0689880722018,56.9310119277982,56.9310119277982,1,1,1,1,1,-1,1,1,-1,-1,1,1,-1,4,80,0
1,354,-1,../static/images/invador3.png,1,80,2,40,right,74,2,803,-0.366169238568473,0,0,1,10680,1372,7.78425655976676,15.5685131195335,12.8401232004918,25.6802464009836,54.3197535990164,54.3197535990164,1,1,1,1,1,1,1,-1,1,1,1,1,1,10,80,1
1,356,-1,../static/images/invador3.png,1,80,2,40,left,70,2,963,0.432171603537971,0,0,1,10780,1380,7.81159420289855,15.6231884057971,12.024286661908,24.048573323816,55.951426676184,55.951426676184,1,1,1,1,-1,1,1,1,1,1,1,-1,1,4,80,0
1,358,-1,../static/images/invador3.png,1,80,2,40,left,70,2,833,-0.216480330673515,0,0,1,10940,1388,7.88184438040346,15.7636887608069,14.2004276454765,28.400855290953,51.599144709047,51.599144709047,1,1,1,1,1,1,1,1,-1,1,1,1,1,4,80,1
1,359,-1,../static/images/invador3.png,1,80,2,40,left,70,2,812,-0.321262566199985,0,0,1,11020,1392,7.91666666666667,15.8333333333333,14.9758472684412,29.9516945368824,50.0483054631176,50.0483054631176,1,1,1,1,1,1,1,1,1,1,1,1,1,4,80,1
1,360,-1,../static/images/invador2.png,4,20,8,2.5,right,70,1,1132,1.2754191180129,0,0,1,11100,1396,7.9512893982808,63.6103151862464,15.5970489164124,124.776391331299,-104.776391331299,104.776391331299,0,-1,-1,-1,1,1,1,1,1,1,1,1,1,4,80,1
1,361,-1,../static/images/invador1.png,3,80,8,10,right,74,2,1137,1.30036726932873,0,0,1,11100,1398,7.93991416309013,63.519313304721,14.3154667471679,114.523733977343,-34.5237339773431,34.5237339773431,1,1,-1,0,-1,-1,1,1,1,1,0,-0,-0,4,80,-1
1,364,-1,../static/images/invador3.png,1,80,2,40,left,74,1,936,0.297451586432508,0,0,1,11280,1416,7.96610169491525,15.9322033898305,11.7847754878971,23.5695509757942,56.4304490242058,56.4304490242058,0,1,1,1,-1,1,1,1,1,-1,1,-1,1,4,80,0
1,365,-1,../static/images/invador3.png,1,80,2,40,right,74,2,1022,0.726559789064722,0,0,1,11280,1418,7.95486600846262,15.9097320169252,10.8164411437029,21.6328822874059,58.3671177125941,58.3671177125941,1,1,1,1,1,1,-1,1,1,1,0,0,0,4,20,1
1,366,-1,../static/images/invador3.png,1,80,2,40,right,74,2,955,0.392254561432648,0,0,1,11360,1422,7.9887482419128,15.9774964838256,12.2648790012508,24.5297580025015,55.4702419974985,55.4702419974985,1,1,1,1,1,1,1,1,-1,1,1,1,1,2,0,1
1,367,-1,../static/images/invador2.png,4,20,8,2.5,right,70,1,988,0.556912360117102,0,0,1,11440,1426,8.02244039270687,64.179523141655,13.4252468297724,107.401974638179,-87.4019746381791,87.4019746381791,0,-1,-1,-1,1,1,1,1,1,1,1,1,1,4,80,1
1,368,-1,../static/images/invador1.png,3,80,8,10,right,70,1,1075,0.991010193012481,0,0,1,11440,1428,8.01120448179272,64.0896358543417,12.3221178310143,98.5769426481146,-18.5769426481146,18.5769426481146,0,1,-1,0,-1,-1,1,1,1,1,0,-0,-0,4,80,-1
1,369,-1,../static/images/invador4.png,2,20,2,10,right,70,1,1136,1.29537763906556,0,0,1,11440,1430,8,16,11.3096310083988,22.6192620167975,-2.61926201679755,2.61926201679755,0,-1,1,0,1,-1,-1,-1,1,1,0,0,-0,2,0,0
1,370,-1,../static/images/invador3.png,1,80,2,40,right,74,2,939,0.312420477222004,0,0,1,11440,1432,7.98882681564246,15.9776536312849,10.3803384531997,20.7606769063993,59.2393230936007,59.2393230936007,1,1,1,1,-1,1,1,-1,-1,-1,0,-0,0,2,0,0
1,372,-1,../static/images/invador3.png,1,80,2,40,right,74,2,841,-0.176563288568193,0,0,1,11520,1438,8.01112656467316,16.0222531293463,10.9364332752898,21.8728665505795,58.1271334494205,58.1271334494205,1,1,1,1,1,-1,1,1,-1,1,0,0,-0,4,80,0
1,374,-1,../static/images/invador2.png,4,20,8,2.5,right,70,1,1047,0.851300545643853,0,0,1,11600,1444,8.03324099722992,64.2659279778393,11.3453244542488,90.7625956339901,-70.7625956339901,70.7625956339901,0,-1,-1,-1,1,1,1,1,1,-1,0,0,0,4,80,1
1,376,-1,../static/images/invador3.png,1,80,2,40,right,74,2,873,-0.0168951201469038,0,0,1,11600,1448,8.01104972375691,16.0220994475138,9.55747293700165,19.1149458740033,60.8850541259967,60.8850541259967,1,1,1,1,1,1,-1,-1,1,1,0,0,0,2,0,1
1,378,-1,../static/images/invador3.png,1,80,2,40,right,74,2,822,-0.271366263568333,0,0,1,11700,1456,8.03571428571429,16.0714285714286,9.91752096168412,19.8350419233682,60.1649580766318,60.1649580766318,1,1,1,1,-1,1,1,1,1,1,1,-1,1,4,80,0
1,381,-1,../static/images/invador3.png,1,80,2,40,right,74,2,896,0.0978663759058974,0,0,1,11860,1466,8.09004092769441,16.1800818553888,12.0883824686163,24.1767649372326,55.8232350627674,55.8232350627674,1,1,1,1,1,1,-1,1,1,1,1,1,1,2,0,1
1,382,-1,../static/images/invador2.png,4,20,8,2.5,right,70,1,1086,1.0458961259073,0,0,1,11940,1470,8.12244897959184,64.9795918367347,13.2838525012222,106.270820009777,-86.2708200097774,86.2708200097774,0,-1,-1,-1,1,1,1,1,-1,1,1,1,1,4,80,1
1,385,-1,../static/images/invador3.png,1,80,2,40,right,74,2,787,-0.446003322779117,0,0,1,12100,1486,8.14266487213997,16.2853297442799,11.8795147887065,23.7590295774129,56.2409704225871,56.2409704225871,1,1,1,1,1,-1,1,1,-1,-1,1,1,-1,4,80,0
1,386,-1,../static/images/invador2.png,4,20,8,2.5,left,74,1,994,0.586850141696094,0,0,1,12180,1490,8.1744966442953,65.3959731543624,13.116525104384,104.932200835072,-84.9322008350723,84.9322008350723,0,-1,-1,-1,1,1,1,-1,1,1,1,1,1,10,80,1
1,388,-1,../static/images/invador3.png,1,80,2,40,left,70,2,866,-0.0518225319890607,0,0,1,12180,1494,8.15261044176707,16.3052208835341,11.0495591570064,22.0991183140128,57.9008816859872,57.9008816859872,1,1,1,1,1,-1,-1,-1,1,1,0,0,-0,2,0,0
1,389,-1,../static/images/invador3.png,1,80,2,40,right,74,2,870,-0.0318640109363996,0,0,1,12260,1498,8.18424566088117,16.3684913217623,12.4516337463554,24.9032674927108,55.0967325072892,55.0967325072892,1,1,1,1,1,1,1,-1,-1,-1,1,1,1,2,0,1
1,390,-1,../static/images/invador4.png,2,20,2,10,left,74,1,907,0.152752308800715,0,0,1,12340,1502,8.21571238348868,16.4314247669774,13.574859184154,27.149718368308,-7.14971836830795,7.14971836830795,0,-1,1,0,1,1,1,1,1,-1,1,1,1,4,80,1
1,391,-1,../static/images/invador3.png,1,80,2,40,right,74,2,853,-0.116687725410209,0,0,1,12340,1504,8.20478723404255,16.4095744680851,12.4594368004933,24.9188736009866,55.0811263990134,55.0811263990134,1,1,1,1,-1,1,1,1,1,1,0,-0,0,4,80,0
1,392,-1,../static/images/invador1.png,3,80,8,10,right,70,1,1007,0.651715335117243,0,0,1,12420,1508,8.23607427055703,65.8885941644562,13.5811103415224,108.648882732179,-28.6488827321789,28.6488827321789,0,1,-1,0,1,1,-1,1,1,1,1,1,1,2,0,1
1,393,-1,../static/images/invador4.png,2,20,2,10,left,74,1,969,0.462109385116962,0,0,1,12420,1510,8.22516556291391,16.4503311258278,12.4651743112185,24.9303486224369,-4.9303486224369,4.9303486224369,0,-1,1,0,1,-1,1,1,-1,1,0,0,-0,4,80,0
1,396,-1,../static/images/invador3.png,1,80,2,40,right,74,2,1007,0.651715335117243,0,0,1,12580,1520,8.27631578947368,16.5526315789474,13.8260381025239,27.6520762050478,52.3479237949522,52.3479237949522,1,1,1,1,1,1,1,1,-1,1,1,1,1,4,80,1
1,398,-1,../static/images/invador2.png,4,20,8,2.5,left,74,1,976,0.497036796959119,0,0,1,12660,1526,8.29619921363041,66.3695937090432,13.4700231164167,107.760184931334,-87.7601849313338,87.7601849313338,0,-1,-1,-1,1,1,1,1,1,1,0,0,0,4,80,1
1,399,-1,../static/images/invador3.png,1,80,2,40,right,74,2,921,0.222607132485029,0,0,1,12660,1528,8.28534031413612,16.5706806282722,12.3632149286739,24.7264298573478,55.2735701426522,55.2735701426522,1,1,1,1,-1,-1,1,1,1,1,0,-0,-0,2,0,-1
1,400,-1,../static/images/invador3.png,1,80,2,40,left,70,2,888,0.0579493338005753,0,0,1,12740,1532,8.31592689295039,16.6318537859008,13.5040253883243,27.0080507766486,52.9919492233514,52.9919492233514,1,1,1,1,1,1,-1,-1,1,1,1,1,1,2,0,1
1,401,-1,../static/images/invador2.png,4,20,8,2.5,right,70,1,1046,0.846310915380688,0,0,1,12820,1536,8.34635416666667,66.7708333333333,14.4179477557363,115.34358204589,-95.3435820458903,95.3435820458903,0,-1,-1,-1,1,1,1,1,-1,-1,1,1,1,4,80,1
1,402,-1,../static/images/invador3.png,1,80,2,40,right,74,2,943,0.332378998274665,0,0,1,12820,1538,8.33550065019506,16.6710013003901,13.2332502620068,26.4665005240135,53.5334994759865,53.5334994759865,1,1,1,1,-1,-1,1,1,1,1,0,-0,-0,4,80,-1
1,403,-1,../static/images/invador3.png,1,80,2,40,left,70,2,944,0.33736862853783,0,0,1,12900,1542,8.36575875486381,16.7315175097276,14.2010252666523,28.4020505333046,51.5979494666954,51.5979494666954,1,1,1,1,1,1,-1,-1,1,1,1,1,1,2,0,1
1,406,-1,../static/images/invador1.png,3,80,8,10,left,74,1,920,0.217617502221864,0,0,1,13060,1558,8.38254172015404,67.0603337612323,12.1140343218942,96.9122745751539,-16.9122745751539,16.9122745751539,0,1,-1,0,1,-1,-1,1,1,1,1,1,-1,2,0,0
1,407,-1,../static/images/invador3.png,1,80,2,40,right,74,2,1059,0.911176108801837,0,0,1,13060,1560,8.37179487179487,16.7435897435897,11.1186453564715,22.237290712943,57.762709287057,57.762709287057,1,1,1,1,1,-1,1,-1,-1,1,0,0,-0,10,80,0
1,408,-1,../static/images/invador3.png,1,80,2,40,right,74,2,1226,1.74444436275044,0,0,1,13140,1564,8.40153452685422,16.8030690537084,12.5069798579171,25.0139597158343,54.9860402841657,54.9860402841657,1,1,1,1,1,1,1,-1,1,-1,1,1,1,2,0,1
1,409,-1,../static/images/invador4.png,2,20,2,10,left,74,1,961,0.42219234301164,0,0,1,13220,1568,8.43112244897959,16.8622448979592,13.6191978811546,27.2383957623092,-7.23839576230918,7.23839576230918,0,-1,1,0,1,1,1,1,1,-1,1,1,1,4,80,1
1,410,-1,../static/images/invador2.png,4,20,8,2.5,left,74,1,1126,1.24548133643391,0,0,1,13220,1570,8.4203821656051,67.3630573248408,12.5001322644831,100.001058115865,-80.0010581158649,80.0010581158649,0,-1,-1,-1,-1,1,1,1,1,1,0,-0,0,4,80,0
1,411,-1,../static/images/invador3.png,1,80,2,40,left,70,2,876,-0.001926229357408,0,0,1,13220,1572,8.40966921119593,16.8193384223919,11.4730183079126,22.9460366158253,57.0539633841747,57.0539633841747,1,1,1,1,-1,-1,-1,1,1,1,0,-0,-0,2,0,-1
1,413,-1,../static/images/invador4.png,2,20,2,10,left,74,1,915,0.192669350906038,0,0,1,13300,1578,8.42839036755386,16.8567807351077,11.7398702724894,23.4797405449788,-3.47974054497881,3.47974054497881,0,-1,1,0,1,1,1,1,-1,-1,0,0,0,4,80,1
1,414,-1,../static/images/invador3.png,1,80,2,40,right,74,2,971,0.472088645643293,0,0,1,13300,1580,8.41772151898734,16.8354430379747,10.7752257111305,21.550451422261,58.449548577739,58.449548577739,1,1,1,1,-1,1,1,1,1,1,0,-0,0,2,0,0
1,416,-1,../static/images/invador3.png,1,80,2,40,left,70,2,872,-0.0218847504100691,0,0,1,13460,1594,8.44416562107905,16.8883312421581,11.1763028514164,22.3526057028328,57.6473942971672,57.6473942971672,1,1,1,1,1,-1,1,1,-1,1,1,1,-1,4,80,0
1,417,-1,../static/images/invador2.png,4,20,8,2.5,right,70,1,1202,1.62469323643447,0,0,1,13540,1598,8.47309136420526,67.7847309136421,12.5531702428609,100.425361942887,-80.4253619428871,80.4253619428871,0,-1,-1,-1,1,1,1,-1,1,1,1,1,1,10,80,1
1,418,-1,../static/images/invador3.png,1,80,2,40,left,70,2,852,-0.121677355673375,0,0,1,13540,1600,8.4625,16.925,11.5216982485779,23.0433964971558,56.9566035028442,56.9566035028442,1,1,1,1,-1,-1,1,1,1,-1,0,-0,-0,4,80,-1
1,419,-1,../static/images/invador3.png,1,80,2,40,left,70,2,963,0.432171603537971,0,0,1,13620,1604,8.49127182044888,16.9825436408978,12.829872280782,25.6597445615641,54.3402554384359,54.3402554384359,1,1,1,1,1,1,-1,-1,1,1,1,1,1,2,0,1
1,420,-1,../static/images/invador3.png,1,80,2,40,right,74,2,824,-0.261387003042002,0,0,1,13700,1608,8.51990049751244,17.0398009950249,13.8778724094496,27.7557448188992,52.2442551811008,52.2442551811008,1,1,1,1,1,1,1,1,-1,-1,1,1,1,4,80,1
1,421,-1,../static/images/invador2.png,4,20,8,2.5,right,70,1,968,0.457119754853797,0,0,1,13780,1612,8.54838709677419,68.3870967741936,14.7174428661699,117.739542929359,-97.7395429293589,97.7395429293589,0,-1,-1,-1,1,1,1,1,1,1,1,1,1,4,80,1
1,423,-1,../static/images/invador3.png,1,80,2,40,left,70,2,900,0.117824896958559,0,0,1,13780,1616,8.52722772277228,17.0544554455446,12.3981964960561,24.7963929921122,55.2036070078878,55.2036070078878,1,1,1,1,-1,1,-1,-1,1,1,0,-0,0,2,0,0
1,424,-1,../static/images/invador3.png,1,80,2,40,right,74,2,979,0.512005687748615,0,0,1,13860,1620,8.55555555555556,17.1111111111111,13.5320497078835,27.064099415767,52.935900584233,52.935900584233,1,1,1,1,1,1,-1,1,-1,-1,1,1,1,2,0,1
1,425,-1,../static/images/invador3.png,1,80,2,40,right,74,2,892,0.0779078548532363,0,0,1,13940,1624,8.58374384236453,17.1674876847291,14.440398507533,28.8807970150659,51.1192029849341,51.1192029849341,1,1,1,1,1,1,1,1,-1,1,1,1,1,4,80,1
1,426,-1,../static/images/invador1.png,3,80,8,10,left,74,1,887,0.05295970353741,0,0,1,14020,1628,8.61179361179361,68.8943488943489,15.1680919454647,121.344735563718,-41.3447355637176,41.3447355637176,0,1,-1,0,1,1,1,1,1,1,1,1,1,4,80,1
1,427,-1,../static/images/invador3.png,1,80,2,40,left,70,2,847,-0.146625506989201,0,0,1,14020,1630,8.60122699386503,17.2024539877301,13.9217564186002,27.8435128372003,52.1564871627997,52.1564871627997,1,1,1,1,1,-1,1,1,1,1,0,0,-0,4,80,0
1,428,-1,../static/images/invador1.png,3,80,8,10,left,74,1,885,0.0429804430110794,0,0,1,14100,1634,8.62913096695226,69.0330477356181,14.7525990809426,118.020792647541,-38.0207926475405,38.0207926475405,0,1,-1,0,1,1,1,-1,1,1,1,1,1,2,0,1
1,429,-1,../static/images/invador2.png,4,20,8,2.5,left,74,1,1092,1.07583390748629,0,0,1,14100,1636,8.61858190709046,68.9486552567237,13.5404038744344,108.323230995475,-88.323230995475,88.323230995475,0,-1,-1,-1,1,-1,1,1,1,-1,0,0,-0,4,80,0
1,430,-1,../static/images/invador3.png,1,80,2,40,left,70,2,992,0.576870881169763,0,0,1,14100,1638,8.60805860805861,17.2161172161172,12.4278126231763,24.8556252463527,55.1443747536473,55.1443747536473,1,1,1,1,-1,-1,1,-1,1,1,0,-0,-0,2,0,-1
3,0,-1,../static/images/invador4.png,1,80,2,40,left,70,2,833,0.00725451228568999,0,0,-1,0,2,0,0,8.20303898067966,16.4060779613593,63.5939220386407,63.5939220386407,1,1,1,1,NaN,NaN,NaN,NaN,NaN,NaN,NaN,NaN,NaN,0,0,NaN
3,1,-1,../static/images/invador4.png,1,80,2,40,right,74,2,802,-0.225928487821368,0,0,-1,80,6,13.3333333333333,26.6666666666667,10.9574480947927,21.9148961895854,58.0851038104146,58.0851038104146,1,1,1,1,1,1,NaN,NaN,NaN,NaN,1,1,1,2,0,1
3,2,-1,../static/images/invador4.png,1,80,2,40,right,74,2,804,-0.210884423298332,0,0,-1,160,10,16,32,13.5937808580023,27.1875617160046,52.8124382839954,52.8124382839954,1,1,1,1,1,1,1,1,NaN,NaN,1,1,1,4,80,1
3,4,-1,../static/images/invador1.png,2,20,2,10,left,70,2,910,0.586450996422576,0,0,-1,320,24,13.3333333333333,26.6666666666667,18.4369536183284,36.8739072366568,-16.8739072366568,16.8739072366568,1,-1,1,0,1,-1,1,1,1,1,1,1,-1,4,80,0
3,5,-1,../static/images/invador2.png,4,20,8,2.5,right,74,2,950,0.887332286883296,0,0,-1,340,28,12.1428571428571,97.1428571428571,18.4231105092686,147.384884074148,-127.384884074148,127.384884074148,1,-1,-1,-1,-1,1,1,-1,1,1,1,-1,1,10,80,0
3,7,-1,../static/images/invador4.png,1,80,2,40,right,74,2,815,-0.128142068421634,0,0,-1,360,40,9,18,18.2631709277044,36.5263418554088,43.4736581445912,43.4736581445912,1,1,1,1,1,1,-1,-1,-1,1,0,0,0,10,20,1
3,8,-1,../static/images/invador1.png,2,20,2,10,right,74,2,983,1.13555935151339,0,0,-1,440,44,10,20,20.5863210600541,41.1726421201082,-21.1726421201082,21.1726421201082,1,-1,1,0,1,1,1,1,-1,-1,1,1,1,2,0,1
3,9,-1,../static/images/invador4.png,1,80,2,40,right,74,2,989,1.1806915450825,0,0,-1,460,48,9.58333333333333,19.1666666666667,20.4803386014077,40.9606772028154,39.0393227971846,39.0393227971846,1,1,1,1,-1,1,1,1,1,1,1,-1,1,4,80,0
3,10,-1,../static/images/invador3.png,3,80,8,10,right,70,1,1261,3.22668432021539,0,0,-1,540,52,10.3846153846154,83.0769230769231,22.7084429154327,181.667543323461,-101.667543323461,101.667543323461,0,1,-1,0,1,1,-1,1,1,1,1,1,1,4,20,1
3,11,-1,../static/images/invador4.png,1,80,2,40,left,70,2,1082,1.88024054540367,0,0,-1,540,54,10,20,22.6615866698094,45.3231733396187,34.6768266603813,34.6768266603813,1,1,1,1,1,-1,1,1,-1,1,0,0,-0,4,80,0
3,12,-1,../static/images/invador4.png,1,80,2,40,right,74,2,823,-0.06796581032949,0,0,-1,620,58,10.6896551724138,21.3793103448276,24.7961849715965,49.5923699431931,30.4076300568069,30.4076300568069,1,1,1,1,1,1,1,-1,1,1,1,1,1,2,0,1
3,13,-1,../static/images/invador2.png,4,20,8,2.5,left,70,2,859,0.202827351085158,0,0,-1,700,62,11.2903225806452,90.3225806451613,26.8392770491165,214.714216392932,-194.714216392932,194.714216392932,1,-1,-1,-1,1,1,1,1,1,-1,1,1,1,4,80,1
3,14,-1,../static/images/invador2.png,4,20,8,2.5,right,70,1,1312,3.61030796555281,0,0,-1,720,72,10,80,26.3065528316935,210.452422653548,-190.452422653548,190.452422653548,0,-1,-1,-1,-1,-1,1,1,1,1,1,-1,-1,4,80,-1
3,15,-1,../static/images/invador4.png,1,80,2,40,right,74,2,841,0.067430770377834,0,0,-1,720,74,9.72972972972973,19.4594594594595,26.2522723023955,52.504544604791,27.495455395209,27.495455395209,1,1,1,1,-1,-1,-1,-1,1,1,0,-0,-0,10,20,-1
3,16,-1,../static/images/invador3.png,3,80,8,10,left,74,1,1016,1.38378641614348,0,0,-1,800,78,10.2564102564103,82.0512820512821,28.2329446479531,225.863557183625,-145.863557183625,145.863557183625,0,1,-1,0,1,1,-1,-1,-1,-1,1,1,1,2,0,1
3,17,-1,../static/images/invador1.png,2,20,2,10,right,74,2,918,0.64662725451472,0,0,-1,800,80,10,20,28.174689231938,56.349378463876,-36.349378463876,36.349378463876,1,-1,1,0,1,-1,1,1,-1,-1,0,0,-0,4,80,0
3,18,-1,../static/images/invador4.png,1,80,2,40,left,70,2,837,0.037342641331762,0,0,-1,820,84,9.76190476190476,19.5238095238095,27.7434076670488,55.4868153340975,24.5131846659025,24.5131846659025,1,1,1,1,-1,1,1,-1,1,1,1,-1,1,2,0,0
3,19,-1,../static/images/invador4.png,1,80,2,40,right,74,2,847,0.112562963946942,0,0,-1,900,88,10.2272727272727,20.4545454545455,29.6601578371898,59.3203156743796,20.6796843256204,20.6796843256204,1,1,1,1,1,1,-1,1,1,-1,1,1,1,4,20,1
3,20,-1,../static/images/invador4.png,1,80,2,40,right,74,2,769,-0.474155552451462,0,0,-1,980,92,10.6521739130435,21.304347826087,31.4947405237409,62.9894810474818,17.0105189525182,17.0105189525182,1,1,1,1,1,1,1,1,-1,1,1,1,1,4,80,1
3,22,-1,../static/images/invador1.png,2,20,2,10,right,74,2,1052,1.65457957755813,0,0,-1,1140,106,10.7547169811321,21.5094339622642,34.7347447485731,69.4694894971461,-49.4694894971461,49.4694894971461,1,-1,1,0,1,-1,1,1,1,1,1,1,-1,4,80,0
3,23,-1,../static/images/invador2.png,4,20,8,2.5,left,74,1,892,0.451054415715252,0,0,-1,1160,110,10.5454545454545,84.3636363636364,34.0222459116527,272.177967293222,-252.177967293222,252.177967293222,0,-1,-1,-1,-1,1,1,-1,1,1,1,-1,1,10,80,0
3,25,-1,../static/images/invador4.png,1,80,2,40,right,74,2,813,-0.14318613294467,0,0,-1,1240,116,10.6896551724138,21.3793103448276,35.6026424808374,71.2052849616748,8.79471503832524,8.79471503832524,1,1,1,1,1,1,-1,-1,-1,1,1,1,1,2,0,1
3,26,-1,../static/images/invador4.png,1,80,2,40,right,74,2,702,-0.978131713973168,0,0,-1,1320,120,11,22,37.1824819999967,74.3649639999935,5.63503600000654,5.63503600000654,1,1,1,1,1,1,1,1,-1,-1,1,1,1,4,80,1
3,27,-1,../static/images/invador4.png,1,80,2,40,left,70,2,735,-0.729904649343074,0,0,-1,1400,124,11.2903225806452,22.5806451612903,38.6945967630624,77.3891935261249,2.61080647387512,2.61080647387512,1,1,1,1,1,1,1,1,1,1,1,1,1,4,80,1
3,28,-1,../static/images/invador4.png,1,80,2,40,left,70,2,746,-0.647162294466376,0,0,-1,1480,128,11.5625,23.125,40.1418900032631,80.2837800065263,-0.2837800065263,0.2837800065263,1,1,1,1,1,1,1,1,1,1,1,1,1,4,80,1
3,30,-1,../static/images/invador4.png,1,80,2,40,right,74,2,858,0.19530531882364,0,0,-1,1580,142,11.1267605633803,22.2535211267606,40.2779320215549,80.5558640431097,-0.555864043109736,0.555864043109736,1,1,1,1,-1,-1,1,1,1,1,1,-1,-1,4,80,-1
3,31,-1,../static/images/invador1.png,2,20,2,10,right,74,2,868,0.27052564143882,0,0,-1,1660,146,11.3698630136986,22.7397260273973,41.6573506498754,83.3147012997508,-63.3147012997508,63.3147012997508,1,-1,1,0,1,1,-1,-1,1,1,1,1,1,10,20,1
3,32,-1,../static/images/invador4.png,1,80,2,40,left,70,2,541,-2.18917890807757,0,0,-1,1680,150,11.2,22.4,40.6480926861499,81.2961853722997,-1.2961853722997,1.2961853722997,1,1,1,1,-1,1,1,1,-1,-1,1,-1,1,4,80,0
3,33,-1,../static/images/invador3.png,3,80,8,10,left,74,1,1080,1.86519648088064,0,0,-1,1760,154,11.4285714285714,91.4285714285714,42.0116432212741,336.093145770193,-256.093145770193,256.093145770193,0,1,-1,0,1,1,-1,1,1,1,1,1,1,4,20,1
3,34,-1,../static/images/invador4.png,1,80,2,40,left,70,2,768,-0.48167758471298,0,0,-1,1760,156,11.2820512820513,22.5641025641026,41.924957054321,83.8499141086419,-3.84991410864193,3.84991410864193,1,1,1,1,1,-1,1,1,-1,1,0,0,-0,4,80,0
3,35,-1,../static/images/invador4.png,1,80,2,40,right,74,2,784,-0.361325068528692,0,0,-1,1840,160,11.5,23,43.2337708096329,86.4675416192658,-6.46754161926582,6.46754161926582,1,1,1,1,1,1,1,-1,1,1,1,1,1,2,0,1
3,36,-1,../static/images/invador4.png,1,80,2,40,left,70,2,904,0.541318802853468,0,0,-1,1920,164,11.7073170731707,23.4146341463415,44.4864781748492,88.9729563496984,-8.97295634969836,8.97295634969836,1,1,1,1,1,1,1,1,1,-1,1,1,1,4,80,1
3,37,-1,../static/images/invador2.png,4,20,8,2.5,left,74,1,975,1.07538309342125,0,0,-1,2000,168,11.9047619047619,95.2380952380952,45.6854843256465,365.483874605172,-345.483874605172,345.483874605172,0,-1,-1,-1,1,1,1,1,1,1,1,1,1,4,80,1
3,38,-1,../static/images/invador3.png,3,80,8,10,right,70,1,1101,2.02315915837251,0,0,-1,2000,170,11.7647058823529,94.1176470588235,45.5912176124705,364.729740899764,-284.729740899764,284.729740899764,0,1,-1,0,-1,-1,1,1,1,1,0,-0,-0,4,80,-1
3,40,-1,../static/images/invador1.png,2,20,2,10,right,74,2,955,0.924942448190886,0,0,-1,2080,176,11.8181818181818,23.6363636363636,46.6528261504899,93.3056523009798,-73.3056523009798,73.3056523009798,1,-1,1,0,1,1,1,-1,-1,-1,1,1,1,2,0,1
3,41,-1,../static/images/invador4.png,1,80,2,40,right,74,2,814,-0.135664100683152,0,0,-1,2100,180,11.6666666666667,23.3333333333333,45.4294215245572,90.8588430491144,-10.8588430491144,10.8588430491144,1,1,1,1,-1,1,1,1,1,-1,1,-1,1,4,80,0
3,43,-1,../static/images/invador4.png,1,80,2,40,right,74,2,796,-0.271060681390476,0,0,-1,2180,186,11.7204301075269,23.4408602150538,46.491876501939,92.983753003878,-12.983753003878,12.983753003878,1,1,1,1,-1,1,1,1,-1,1,0,-0,0,4,80,0
3,44,-1,../static/images/invador2.png,4,20,8,2.5,left,74,1,981,1.12051528699035,0,0,-1,2260,190,11.8947368421053,95.1578947368421,47.6049149889795,380.839319911836,-360.839319911836,360.839319911836,0,-1,-1,-1,1,1,-1,1,1,1,1,1,1,2,0,1
3,45,-1,../static/images/invador4.png,1,80,2,40,right,74,2,784,-0.361325068528692,0,0,-1,2260,192,11.7708333333333,23.5416666666667,47.5066877526205,95.013375505241,-15.013375505241,15.013375505241,1,1,1,1,-1,-1,1,1,-1,1,0,-0,-0,4,80,-1
3,46,-1,../static/images/invador4.png,1,80,2,40,right,74,2,814,-0.135664100683152,0,0,-1,2340,196,11.9387755102041,23.8775510204082,48.5762231853317,97.1524463706635,-17.1524463706635,17.1524463706635,1,1,1,1,1,1,-1,-1,1,1,1,1,1,2,0,1
3,47,-1,../static/images/invador4.png,1,80,2,40,left,70,2,799,-0.248494584605922,0,0,-1,2420,200,12.1,24.2,49.5999096407035,99.1998192814071,-19.1998192814071,19.1998192814071,1,1,1,1,1,1,1,1,-1,-1,1,1,1,4,80,1
3,48,-1,../static/images/invador3.png,3,80,8,10,left,74,1,996,1.23334577091312,0,0,-1,2500,204,12.2549019607843,98.0392156862745,50.5797125783726,404.637700626981,-324.637700626981,324.637700626981,0,1,-1,0,1,1,1,1,1,1,1,1,1,4,80,1
3,49,-1,../static/images/invador4.png,1,80,2,40,left,70,2,787,-0.338758971744138,0,0,-1,2500,206,12.1359223300971,24.2718446601942,50.4753471912365,100.950694382473,-20.950694382473,20.950694382473,1,1,1,1,1,-1,1,1,1,1,0,0,-0,4,80,0
3,50,-1,../static/images/invador4.png,1,80,2,40,right,74,2,843,0.08247483490087,0,0,-1,2580,210,12.2857142857143,24.5714285714286,51.417621763609,102.835243527218,-22.835243527218,22.835243527218,1,1,1,1,1,1,1,-1,1,1,1,1,1,2,0,1
3,51,-1,../static/images/invador4.png,1,80,2,40,left,70,2,811,-0.158230197467706,0,0,-1,2660,214,12.4299065420561,24.8598130841122,52.3195027929581,104.639005585916,-24.6390055859163,24.6390055859163,1,1,1,1,1,1,1,1,1,-1,1,1,1,4,80,1
3,52,-1,../static/images/invador2.png,4,20,8,2.5,left,74,1,1001,1.27095593222071,0,0,-1,2740,218,12.5688073394495,100.550458715596,53.182721874687,425.461774997496,-405.461774997496,405.461774997496,0,-1,-1,-1,1,1,1,1,1,1,1,1,1,4,80,1
3,54,-1,../static/images/invador4.png,1,80,2,40,right,74,2,847,0.112562963946942,0,0,-1,2820,230,12.2608695652174,24.5217391304348,53.5901061074864,107.180212214973,-27.1802122149728,27.1802122149728,1,1,1,1,1,-1,-1,-1,1,1,1,1,-1,2,0,0
3,55,-1,../static/images/invador1.png,2,20,2,10,left,74,1,955,0.924942448190886,0,0,-1,2900,234,12.3931623931624,24.7863247863248,54.3988568090256,108.797713618051,-88.7977136180512,88.7977136180512,0,-1,1,0,1,1,1,-1,-1,-1,1,1,1,10,80,1
3,56,-1,../static/images/invador4.png,1,80,2,40,right,74,2,885,0.398400189884626,0,0,-1,2900,236,12.2881355932203,24.5762711864407,54.2866110594706,108.573222118941,-28.5732221189412,28.5732221189412,1,1,1,1,-1,1,1,1,1,-1,0,-0,0,4,80,0
3,57,-1,../static/images/invador2.png,4,20,8,2.5,right,70,1,887,0.413444254407662,0,0,-1,2980,240,12.4166666666667,99.3333333333333,55.0655039004999,440.524031203999,-420.524031203999,420.524031203999,0,-1,-1,-1,1,1,-1,1,1,1,1,1,1,2,0,1
3,61,-1,../static/images/invador3.png,3,80,8,10,right,70,1,1038,1.54927112589688,0,0,-1,3060,250,12.24,97.92,55.479019094487,443.832152755896,-363.832152755896,363.832152755896,0,1,-1,0,-1,1,1,1,1,1,0,-0,0,4,80,0
3,62,-1,../static/images/invador4.png,1,80,2,40,left,70,2,887,0.413444254407662,0,0,-1,3060,252,12.1428571428571,24.2857142857143,55.3645445549815,110.729089109963,-30.729089109963,30.729089109963,1,1,1,1,1,-1,-1,1,1,1,0,0,-0,2,0,0
3,63,-1,../static/images/invador4.png,1,80,2,40,right,74,2,813,-0.14318613294467,0,0,-1,3140,256,12.265625,24.53125,56.0972284094755,112.194456818951,-32.1944568189511,32.1944568189511,1,1,1,1,1,1,1,-1,-1,1,1,1,1,2,0,1
3,65,-1,../static/images/invador3.png,3,80,8,10,right,70,1,904,0.541318802853468,0,0,-1,3300,264,12.5,100,57.4697162074815,459.757729659852,-379.757729659852,379.757729659852,0,1,-1,0,1,1,1,1,1,1,1,1,1,4,80,1
3,66,-1,../static/images/invador4.png,1,80,2,40,left,70,2,818,-0.10557597163708,0,0,-1,3300,266,12.406015037594,24.812030075188,57.3511340947164,114.702268189433,-34.7022681894327,34.7022681894327,1,1,1,1,1,-1,1,1,1,1,0,0,-0,4,80,0
3,68,-1,../static/images/invador4.png,1,80,2,40,right,74,2,854,0.165217189777568,0,0,-1,3380,272,12.4264705882353,24.8529411764706,57.8789830628231,115.757966125646,-35.7579661256461,35.7579661256461,1,1,1,1,-1,1,1,1,1,-1,0,-0,0,4,80,0
3,70,-1,../static/images/invador3.png,3,80,8,10,left,74,1,898,0.49618660928436,0,0,-1,3480,286,12.1678321678322,97.3426573426573,56.4265320597804,451.412256478243,-371.412256478243,371.412256478243,0,1,-1,0,-1,-1,1,1,-1,1,1,-1,-1,4,80,-1
3,71,-1,../static/images/invador4.png,1,80,2,40,right,74,2,799,-0.248494584605922,0,0,-1,3480,288,12.0833333333333,24.1666666666667,56.3101024368552,112.62020487371,-32.6202048737104,32.6202048737104,1,1,1,1,1,-1,-1,-1,1,1,0,0,-0,10,20,0
3,72,-1,../static/images/invador4.png,1,80,2,40,left,70,2,886,0.405922222146144,0,0,-1,3560,292,12.1917808219178,24.3835616438356,57.0022519990077,114.004503998015,-34.0045039980154,34.0045039980154,1,1,1,1,1,1,1,-1,-1,-1,1,1,1,2,0,1
3,73,-1,../static/images/invador4.png,1,80,2,40,left,70,2,928,0.7218475771299,0,0,-1,3640,296,12.2972972972973,24.5945945945946,57.6647304080408,115.329460816082,-35.3294608160815,35.3294608160815,1,1,1,1,1,1,1,1,1,-1,1,1,1,4,80,1
3,74,-1,../static/images/invador4.png,1,80,2,40,right,74,2,999,1.25591186769768,0,0,-1,3720,300,12.4,24.8,58.2988096106197,116.597619221239,-36.5976192212394,36.5976192212394,1,1,1,1,1,1,1,1,1,1,1,1,1,4,80,1
3,75,-1,../static/images/invador1.png,2,20,2,10,left,70,2,921,0.669193351299274,0,0,-1,3800,304,12.5,25,58.9057070274425,117.811414054885,-97.8114140548851,97.8114140548851,1,-1,1,0,1,1,1,1,1,1,1,1,1,4,80,1
3,76,-1,../static/images/invador2.png,4,20,8,2.5,right,70,1,1169,2.53465735215574,0,0,-1,3820,308,12.4025974025974,99.2207792207792,57.157044387153,457.256355097224,-437.256355097224,437.256355097224,0,-1,-1,-1,-1,1,1,1,1,1,1,-1,1,4,80,0
3,77,-1,../static/images/invador3.png,3,80,8,10,right,70,1,993,1.21077967412857,0,0,-1,3820,310,12.3225806451613,98.5806451612903,57.0391074365272,456.312859492218,-376.312859492218,376.312859492218,0,1,-1,0,-1,-1,-1,1,1,1,0,-0,-0,4,20,-1
3,79,-1,../static/images/invador4.png,1,80,2,40,left,70,2,954,0.917420415929368,0,0,-1,3820,314,12.1656050955414,24.3312101910828,56.8039630809256,113.607926161851,-33.6079261618513,33.6079261618513,1,1,1,1,1,1,1,-1,-1,-1,0,0,0,2,0,1
3,80,-1,../static/images/invador1.png,2,20,2,10,right,74,2,1145,2.35412857787931,0,0,-1,3900,318,12.2641509433962,24.5283018867925,57.4749417638475,114.949883527695,-94.949883527695,94.949883527695,1,-1,1,0,1,1,1,1,1,-1,1,1,1,2,0,1
3,81,-1,../static/images/invador4.png,1,80,2,40,left,70,2,833,0.00725451228568999,0,0,-1,3920,322,12.1739130434783,24.3478260869565,55.7876133460085,111.575226692017,-31.5752266920169,31.5752266920169,1,1,1,1,-1,1,1,1,1,1,1,-1,1,4,80,0
3,82,-1,../static/images/invador4.png,1,80,2,40,right,74,2,779,-0.398935229836282,0,0,-1,4000,326,12.2699386503067,24.5398773006135,56.5021610351923,113.004322070385,-33.0043220703845,33.0043220703845,1,1,1,1,1,1,-1,1,1,1,1,1,1,4,20,1
3,83,-1,../static/images/invador2.png,4,20,8,2.5,left,74,1,1082,1.88024054540367,0,0,-1,4080,330,12.3636363636364,98.9090909090909,57.1860774055741,457.488619244593,-437.488619244593,437.488619244593,0,-1,-1,-1,1,1,1,1,-1,1,1,1,1,4,80,1
3,84,-1,../static/images/invador2.png,4,20,8,2.5,right,70,1,985,1.15060341603643,0,0,-1,4080,332,12.289156626506,98.3132530120482,57.0680805486726,456.544644389381,-436.544644389381,436.544644389381,0,-1,-1,-1,-1,-1,1,1,1,1,0,-0,-0,4,80,-1
3,85,-1,../static/images/invador3.png,3,80,8,10,right,70,1,860,0.210349383346676,0,0,-1,4080,334,12.2155688622754,97.7245508982036,56.9503271646385,455.602617317108,-375.602617317108,375.602617317108,0,1,-1,0,-1,-1,-1,-1,1,1,0,-0,-0,2,0,-1
3,86,-1,../static/images/invador4.png,1,80,2,40,left,70,2,801,-0.233450520082886,0,0,-1,4080,336,12.1428571428571,24.2857142857143,56.8328167510936,113.665633502187,-33.6656335021872,33.6656335021872,1,1,1,1,1,-1,-1,-1,-1,-1,0,0,-0,2,0,0
3,87,-1,../static/images/invador4.png,1,80,2,40,left,70,2,872,0.300613770484892,0,0,-1,4160,340,12.2352941176471,24.4705882352941,57.5025585313106,115.005117062621,-35.0051170626212,35.0051170626212,1,1,1,1,1,1,1,-1,-1,-1,1,1,1,2,0,1
3,88,-1,../static/images/invador1.png,2,20,2,10,right,74,2,880,0.360790028577036,0,0,-1,4240,344,12.3255813953488,24.6511627906977,58.1435897379783,116.287179475957,-96.2871794759565,96.2871794759565,1,-1,1,0,1,1,1,1,1,-1,1,1,1,4,80,1
3,89,-1,../static/images/invador4.png,1,80,2,40,right,74,2,956,0.932464480452404,0,0,-1,4260,348,12.2413793103448,24.4827586206897,56.4275976360046,112.855195272009,-32.8551952720093,32.8551952720093,1,1,1,1,-1,1,1,1,1,1,1,-1,1,4,80,0
3,90,-1,../static/images/invador4.png,1,80,2,40,right,74,2,1117,2.1435116745568,0,0,-1,4340,352,12.3295454545455,24.6590909090909,57.114710399414,114.229420798828,-34.2294207988279,34.2294207988279,1,1,1,1,1,1,-1,1,1,1,1,1,1,4,20,1
3,93,-1,../static/images/invador1.png,2,20,2,10,right,74,2,888,0.42096628666918,0,0,-1,4500,362,12.4309392265193,24.8618784530387,58.2877364755534,116.575472951107,-96.5754729511069,96.5754729511069,1,-1,1,0,1,1,1,1,1,1,1,1,1,2,0,1
3,94,-1,../static/images/invador4.png,1,80,2,40,left,70,2,838,0.04486467359328,0,0,-1,4520,366,12.3497267759563,24.6994535519126,56.5655650733879,113.131130146776,-33.1311301467757,33.1311301467757,1,1,1,1,-1,1,1,1,1,1,1,-1,1,4,80,0
3,95,-1,../static/images/invador3.png,3,80,8,10,left,74,1,902,0.526274738330432,0,0,-1,4600,370,12.4324324324324,99.4594594594595,57.2467634316109,457.974107452887,-377.974107452887,377.974107452887,0,1,-1,0,1,1,-1,1,1,1,1,1,1,4,20,1
3,97,-1,../static/images/invador4.png,1,80,2,40,right,74,2,1058,1.69971177112724,0,0,-1,4600,382,12.0418848167539,24.0837696335079,56.541676904575,113.08335380915,-33.0833538091499,33.0833538091499,1,1,1,1,-1,-1,1,-1,1,1,NaN,NaN,NaN,2,0,-1
3,98,-1,../static/images/invador1.png,2,20,2,10,left,70,2,1012,1.35369828709741,0,0,-1,4680,386,12.1243523316062,24.2487046632124,57.223899303776,114.447798607552,-94.447798607552,94.447798607552,1,-1,1,0,1,1,-1,-1,1,-1,1,1,1,10,0,1
3,99,-1,../static/images/invador2.png,4,20,8,2.5,left,74,1,844,0.089996867162388,0,0,-1,4700,390,12.0512820512821,96.4102564102564,55.5473326051947,444.378660841558,-424.378660841558,424.378660841558,0,-1,-1,-1,-1,1,1,1,-1,-1,1,-1,1,4,80,0
3,100,-1,../static/images/invador4.png,1,80,2,40,left,70,2,988,1.17316951282098,0,0,-1,4700,392,11.9897959183673,23.9795918367347,55.4327171086607,110.865434217321,-30.8654342173213,30.8654342173213,1,1,1,1,-1,-1,-1,1,1,1,0,-0,-0,4,20,-1
3,101,-1,../static/images/invador4.png,1,80,2,40,right,74,2,1013,1.36122031935893,0,0,-1,4780,396,12.0707070707071,24.1414141414141,56.1624785336837,112.324957067367,-32.3249570673675,32.3249570673675,1,1,1,1,1,1,-1,-1,-1,1,1,1,1,2,0,1
3,102,-1,../static/images/invador3.png,3,80,8,10,left,74,1,886,0.405922222146144,0,0,-1,4860,400,12.15,97.2,56.8609564555934,454.887651644748,-374.887651644748,374.887651644748,0,1,-1,0,1,1,1,1,-1,-1,1,1,1,4,80,1
3,103,-1,../static/images/invador4.png,1,80,2,40,left,70,2,788,-0.33123693948262,0,0,-1,4860,402,12.089552238806,24.1791044776119,56.7436304481705,113.487260896341,-33.4872608963411,33.4872608963411,1,1,1,1,1,-1,1,1,1,1,0,0,-0,4,80,0
3,104,-1,../static/images/invador4.png,1,80,2,40,left,70,2,819,-0.098053939375562,0,0,-1,4940,406,12.1674876847291,24.3349753694581,57.4171954778626,114.834390955725,-34.8343909557252,34.8343909557252,1,1,1,1,1,1,1,-1,1,1,1,1,1,2,0,1
3,105,-1,../static/images/invador1.png,2,20,2,10,right,74,2,938,0.79706789974508,0,0,-1,5020,410,12.2439024390244,24.4878048780488,58.0618860384736,116.123772076947,-96.1237720769471,96.1237720769471,1,-1,1,0,1,1,1,1,1,-1,1,1,1,4,80,1
3,107,-1,../static/images/invador3.png,3,80,8,10,right,70,1,845,0.097518899423906,0,0,-1,5120,418,12.2488038277512,97.9904306220096,57.0398615235892,456.318892188714,-376.318892188714,376.318892188714,0,1,-1,0,1,1,-1,1,1,1,1,1,1,4,20,1
3,108,-1,../static/images/invador4.png,1,80,2,40,right,74,2,819,-0.098053939375562,0,0,-1,5120,420,12.1904761904762,24.3809523809524,56.9221663662497,113.844332732499,-33.8443327324994,33.8443327324994,1,1,1,1,1,-1,1,1,-1,1,0,0,-0,4,80,0
3,109,-1,../static/images/invador2.png,4,20,8,2.5,right,70,1,1081,1.87271851314215,0,0,-1,5200,424,12.2641509433962,98.1132075471698,57.5880778961025,460.70462316882,-440.70462316882,440.70462316882,0,-1,-1,-1,1,1,1,-1,1,1,1,1,1,2,0,1
3,110,-1,../static/images/invador4.png,1,80,2,40,right,74,2,936,0.782023835222044,0,0,-1,5200,426,12.2065727699531,24.4131455399061,57.469251557682,114.938503115364,-34.938503115364,34.938503115364,1,1,1,1,-1,-1,1,1,1,-1,0,-0,-0,4,80,-1
3,111,-1,../static/images/invador4.png,1,80,2,40,left,70,2,847,0.112562963946942,0,0,-1,5280,430,12.2790697674419,24.5581395348837,58.1117105718186,116.223421143637,-36.2234211436372,36.2234211436372,1,1,1,1,1,1,-1,-1,1,1,1,1,1,2,0,1
3,112,-1,../static/images/invador2.png,4,20,8,2.5,right,70,1,928,0.7218475771299,0,0,-1,5360,434,12.3502304147465,98.8018433179724,58.7266285733999,469.813028587199,-449.813028587199,449.813028587199,0,-1,-1,-1,1,1,1,1,-1,-1,1,1,1,4,80,1
3,114,-1,../static/images/invador4.png,1,80,2,40,left,70,2,989,1.1806915450825,0,0,-1,5440,440,12.3636363636364,24.7272727272727,59.1992051587796,118.398410317559,-38.3984103175591,38.3984103175591,1,1,1,1,1,1,-1,-1,1,1,1,1,1,2,0,1
3,115,-1,../static/images/invador3.png,3,80,8,10,right,70,1,825,-0.052921745806454,0,0,-1,5520,444,12.4324324324324,99.4594594594595,59.7675043077737,478.140034462189,-398.140034462189,398.140034462189,0,1,-1,0,1,1,1,1,-1,-1,1,1,1,4,80,1
3,116,-1,../static/images/invador1.png,2,20,2,10,left,70,2,906,0.556362867376504,0,0,-1,5520,446,12.3766816143498,24.7533632286996,59.644180975013,119.288361950026,-99.2883619500261,99.2883619500261,1,-1,1,0,1,-1,1,1,1,1,0,0,-0,4,80,0
3,117,-1,../static/images/invador4.png,1,80,2,40,right,74,2,820,-0.090531907114044,0,0,-1,5540,450,12.3111111111111,24.6222222222222,57.8638613421149,115.72772268423,-35.7277226842299,35.7277226842299,1,1,1,1,-1,1,1,-1,1,1,1,-1,1,2,0,0
