subj,trial_index_actual,block,stimulus,stim_rank,reward_percent,delay_s,profitability,stim_left_right,key_press,approach_avoid,rt,rt_z,force_trial,missed,order_condition,reward_sum,delay_sum,Q_arithmetic,opp_cost_arithmetic,Q_estimate,opp_cost_estimate
1,0,1,../static/images/invador2.png,4,20,8,2.5,left,74,1,1172.0,1.47500432853951,0,0,2,0.0,2.0,0.0,0.0,7.544577008917085,60.35661607133668
1,1,1,../static/images/invador3.png,1,80,2,40.0,right,74,2,1046.0,0.846310915380688,1,0,2,0.0,4.0,0.0,0.0,6.924652341055993,13.849304682111987
1,2,1,../static/images/invador1.png,3,80,8,10.0,left,70,2,743.0,-0.665547054358389,0,0,2,80.0,8.0,10.0,80.0,9.147101805315373,73.17681444252298
1,3,1,../static/images/invador2.png,4,20,8,2.5,right,74,0,NaN,NaN,1,1,2,160.0,18.0,8.88888888888889,71.11111111111111,9.265542320320089,74.12433856256071
1,4,1,../static/images/invador2.png,4,20,8,2.5,left,70,2,858.0,-0.0917395740943829,0,0,2,160.0,28.0,5.714285714285714,45.714285714285715,6.03512452443735,48.2809961954988
1,5,1,../static/images/invador4.png,2,20,2,10.0,left,70,2,818.0,-0.291324784620994,0,0,2,180.0,38.0,4.7368421052631575,9.473684210526315,4.638187016644157,9.276374033288313
1,6,1,../static/images/invador2.png,4,20,8,2.5,left,70,2,1076.0,0.995999823275646,0,0,2,200.0,42.0,4.761904761904762,38.095238095238095,4.615641014416738,36.925128115333905
1,7,1,../static/images/invador2.png,4,20,8,2.5,right,74,2,987.0,0.551922729853937,0,0,2,220.0,52.0,4.230769230769231,33.84615384615385,3.758930899227167,30.071447193817335
1,8,1,../static/images/invador1.png,3,80,8,10.0,left,74,1,766.0,-0.550785558305588,2,0,2,240.0,62.0,3.870967741935484,30.967741935483872,3.22826773595977,25.82614188767816
1,9,1,../static/images/invador4.png,2,20,2,10.0,right,74,2,1059.0,0.911176108801837,0,0,2,240.0,64.0,3.75,7.5,2.9630066349575293,5.9260132699150585
1,10,1,../static/images/invador2.png,4,20,8,2.5,left,74,1,569.0,-1.53374272014915,2,0,2,260.0,68.0,3.823529411764706,30.58823529411765,3.2736259519476003,26.189007615580802
1,11,1,../static/images/invador3.png,1,80,2,40.0,right,74,2,940.0,0.317410107485169,0,0,2,260.0,70.0,3.7142857142857144,7.428571428571429,3.004637845846493,6.009275691692986
1,12,1,../static/images/invador2.png,4,20,8,2.5,left,74,1,791.0,-0.426044801726456,2,0,2,340.0,74.0,4.594594594594595,36.75675675675676,6.006712534297381,48.05370027437905
1,13,1,../static/images/invador2.png,4,20,8,2.5,left,70,2,907.0,0.152752308800715,0,0,2,340.0,76.0,4.473684210526316,35.78947368421053,5.513151494578357,44.10521195662685
1,14,1,../static/images/invador2.png,4,20,8,2.5,right,70,1,962.0,0.427181973274805,2,0,2,360.0,86.0,4.186046511627907,33.48837209302326,4.31486661426517,34.51893291412136
1,15,1,../static/images/invador2.png,4,20,8,2.5,left,70,2,919.0,0.212627871958699,0,0,2,360.0,88.0,4.090909090909091,32.72727272727273,3.9603215881422025,31.68257270513762
1,16,1,../static/images/invador2.png,4,20,8,2.5,left,74,1,949.0,0.362316779853657,0,0,2,380.0,98.0,3.877551020408163,31.020408163265305,3.35301310564483,26.82410484515864
1,17,1,../static/images/invador4.png,2,20,2,10.0,left,70,2,873.0,-0.0168951201469038,0,0,2,380.0,100.0,3.8,7.6,3.077501896282927,6.155003792565854
1,18,1,../static/images/invador1.png,3,80,8,10.0,left,70,2,1016.0,0.69662200748573,0,0,2,400.0,104.0,3.8461538461538463,30.76923076923077,3.3653500235519487,26.92280018841559
1,19,1,../static/images/invador3.png,1,80,2,40.0,left,70,2,907.0,0.152752308800715,0,0,2,480.0,114.0,4.2105263157894735,8.421052631578947,5.684211091309721,11.368422182619442
1,20,1,../static/images/invador2.png,4,20,8,2.5,left,74,1,763.0,-0.565754449095084,0,0,2,560.0,118.0,4.745762711864407,37.96610169491525,8.15336354317582,65.22690834540656
1,21,1,../static/images/invador2.png,4,20,8,2.5,left,74,1,1056.0,0.896207218012341,0,0,2,560.0,120.0,4.666666666666667,37.333333333333336,7.483415952942461,59.86732762353969
1,22,1,../static/images/invador4.png,2,20,2,10.0,right,74,2,772.0,-0.520847776726596,0,0,2,560.0,122.0,4.590163934426229,9.180327868852459,6.868516781841001,13.737033563682003
1,23,1,../static/images/invador2.png,4,20,8,2.5,left,74,1,868.0,-0.0418432714627302,0,0,2,580.0,126.0,4.603174603174603,36.82539682539682,6.402395546578724,51.21916437262979
1,24,1,../static/images/invador1.png,3,80,8,10.0,right,74,2,1015.0,0.691632377222565,0,0,2,580.0,128.0,4.53125,36.25,5.876321927337101,47.01057541869681
1,25,1,../static/images/invador3.png,1,80,2,40.0,left,74,1,961.0,0.42219234301164,0,0,2,660.0,138.0,4.782608695652174,9.565217391304348,7.239556674037358,14.479113348074716
1,26,1,../static/images/invador2.png,4,20,8,2.5,right,70,1,1075.0,0.991010193012481,0,0,2,660.0,140.0,4.714285714285714,37.714285714285715,6.644694992420255,53.15755993936204
1,27,1,../static/images/invador2.png,4,20,8,2.5,left,74,1,1015.0,0.691632377222565,0,0,2,660.0,142.0,4.647887323943662,37.183098591549296,6.098712052442863,48.789696419542906
1,28,1,../static/images/invador4.png,2,20,2,10.0,left,70,2,954.0,0.387264931169483,0,0,2,660.0,144.0,4.583333333333333,9.166666666666666,5.5975915735846655,11.195183147169331
1,29,1,../static/images/invador2.png,4,20,8,2.5,left,70,2,907.0,0.152752308800715,0,0,2,680.0,148.0,4.594594594594595,36.75675675675676,5.384236074680853,43.073888597446825
1,30,1,../static/images/invador1.png,3,80,8,10.0,left,74,1,612.0,-1.31918861883304,2,0,2,700.0,158.0,4.430379746835443,35.44303797468354,4.2350138574179885,33.88011085934391
1,31,1,../static/images/invador3.png,1,80,2,40.0,left,70,2,871.0,-0.0268743806732344,1,0,2,700.0,160.0,4.375,8.75,3.887030192350488,7.774060384700976
1,32,1,../static/images/invador2.png,4,20,8,2.5,right,70,1,948.0,0.357327149590492,0,0,2,780.0,164.0,4.7560975609756095,38.048780487804876,6.713611822852548,53.708894582820385
1,33,1,../static/images/invador2.png,4,20,8,2.5,left,74,1,967.0,0.452130124590632,0,0,2,780.0,166.0,4.698795180722891,37.59036144578313,6.16196610772351,49.29572886178808
1,34,1,../static/images/invador2.png,4,20,8,2.5,right,70,1,1068.0,0.956082781170324,0,0,2,780.0,168.0,4.642857142857143,37.142857142857146,5.655648154021543,45.245185232172346
1,35,1,../static/images/invador3.png,1,80,2,40.0,right,74,2,783.0,-0.465961843831778,0,0,2,780.0,170.0,4.588235294117647,9.176470588235293,5.190933459045655,10.38186691809131
1,36,1,../static/images/invador2.png,4,20,8,2.5,right,70,1,1000.0,0.616787923275086,0,0,2,860.0,174.0,4.942528735632184,39.54022988505747,7.758190569736994,62.065524557895955
1,37,1,../static/images/invador4.png,2,20,2,10.0,left,70,2,893.0,0.0828974851164016,0,0,2,860.0,176.0,4.886363636363637,9.772727272727273,7.120713650028597,14.241427300057193
1,38,1,../static/images/invador1.png,3,80,8,10.0,right,74,2,777.0,-0.49589962541077,0,0,2,880.0,180.0,4.888888888888889,39.111111111111114,6.604434681895322,52.835477455162575
1,39,1,../static/images/invador2.png,4,20,8,2.5,left,74,1,1006.0,0.646725704854077,0,0,2,960.0,190.0,5.052631578947368,40.421052631578945,7.690564092647915,61.52451274118332
1,40,1,../static/images/invador2.png,4,20,8,2.5,right,70,1,1025.0,0.741528679854217,0,0,2,960.0,192.0,5.0,40.0,7.058643922018826,56.469151376150606
1,41,1,../static/images/invador2.png,4,20,8,2.5,right,70,1,931.0,0.272503435116682,0,0,2,960.0,194.0,4.948453608247423,39.58762886597938,6.4786475241113815,51.82918019289105
1,42,1,../static/images/invador2.png,4,20,8,2.5,right,70,1,982.0,0.526974578538111,0,0,2,960.0,196.0,4.8979591836734695,39.183673469387756,5.946308413538725,47.5704673083098
1,43,1,../static/images/invador4.png,2,20,2,10.0,right,74,2,888.0,0.0579493338005753,0,0,2,960.0,198.0,4.848484848484849,9.696969696969697,5.457710674539476,10.915421349078953
1,44,1,../static/images/invador2.png,4,20,8,2.5,right,70,1,885.0,0.0429804430110794,0,0,2,980.0,202.0,4.851485148514851,38.81188118811881,5.272175143498405,42.17740114798724
1,45,1,../static/images/invador2.png,4,20,8,2.5,right,70,1,1032.0,0.776456091696374,0,0,2,980.0,204.0,4.803921568627451,38.431372549019606,4.838969753603673,38.71175802882939
1,46,1,../static/images/invador3.png,1,80,2,40.0,right,74,0,NaN,NaN,0,1,2,980.0,206.0,4.757281553398058,9.514563106796116,4.441360091226697,8.882720182453394
1,47,1,../static/images/invador1.png,3,80,8,10.0,left,70,2,1046.0,0.846310915380688,1,0,2,980.0,216.0,4.537037037037037,36.2962962962963,2.8928863828764593,23.143091063011674
1,48,1,../static/images/invador2.png,4,20,8,2.5,right,70,1,962.0,0.427181973274805,0,0,2,1060.0,226.0,4.6902654867256635,37.52212389380531,5.3915577822797385,43.13246225823791
1,49,1,../static/images/invador2.png,4,20,8,2.5,left,70,2,722.0,-0.77032928988486,0,0,2,1060.0,228.0,4.649122807017544,37.19298245614035,4.948542930223321,39.58834344178657
1,50,1,../static/images/invador2.png,4,20,8,2.5,right,70,1,884.0,0.0379908127479142,0,0,2,1080.0,238.0,4.53781512605042,36.30252100840336,3.965136919872325,31.7210953589786
1,51,1,../static/images/invador1.png,3,80,8,10.0,right,70,1,486.0,-1.94788203199186,2,0,2,1080.0,240.0,4.5,36.0,3.6393285696930717,29.114628557544574
1,52,1,../static/images/invador3.png,1,80,2,40.0,left,70,2,933.0,0.282482695643012,0,0,2,1080.0,242.0,4.462809917355372,8.925619834710744,3.340291320535456,6.680582641070912
1,53,1,../static/images/invador2.png,4,20,8,2.5,right,70,1,886.0,0.0479700732742447,0,0,2,1160.0,246.0,4.715447154471545,37.72357723577236,6.275610154951917,50.20488123961534
1,54,1,../static/images/invador2.png,4,20,8,2.5,left,74,1,599.0,-1.38405381225419,2,0,2,1160.0,248.0,4.67741935483871,37.41935483870968,5.759954269096936,46.07963415277549
1,55,1,../static/images/invador4.png,2,20,2,10.0,right,74,2,885.0,0.0429804430110794,0,0,2,1160.0,250.0,4.64,9.28,5.286668923484496,10.573337846968991
1,56,1,../static/images/invador1.png,3,80,8,10.0,right,70,1,681.0,-0.974904130674636,2,0,2,1180.0,254.0,4.645669291338582,37.16535433070866,5.135150731837274,41.08120585469819
1,57,1,../static/images/invador3.png,1,80,2,40.0,right,74,2,969.0,0.462109385116962,0,0,2,1180.0,256.0,4.609375,9.21875,4.713204397657328,9.426408795314655
1,58,1,../static/images/invador2.png,4,20,8,2.5,right,70,1,975.0,0.492047166695954,0,0,2,1260.0,260.0,4.846153846153846,38.76923076923077,7.375473816859983,59.00379053487986
1,59,1,../static/images/invador4.png,2,20,2,10.0,left,70,2,1033.0,0.78144572195954,0,0,2,1260.0,262.0,4.809160305343512,9.618320610687023,6.7694440618676115,13.538888123735223
1,60,1,../static/images/invador2.png,4,20,8,2.5,right,70,1,929.0,0.262524174590351,2,0,2,1280.0,266.0,4.81203007518797,38.49624060150376,6.323026731173774,50.58421384939019
1,61,1,../static/images/invador2.png,4,20,8,2.5,left,74,1,1219.0,1.70951695090828,0,0,2,1280.0,268.0,4.776119402985074,38.208955223880594,5.803474708367616,46.427797666940926
1,62,1,../static/images/invador2.png,4,20,8,2.5,right,70,1,1046.0,0.846310915380688,0,0,2,1280.0,270.0,4.7407407407407405,37.925925925925924,5.3266133645477005,42.612906916381604
1,63,1,../static/images/invador2.png,4,20,8,2.5,right,70,1,963.0,0.432171603537971,0,0,2,1280.0,272.0,4.705882352941177,37.64705882352941,4.88893488145463,39.11147905163704
1,64,1,../static/images/invador2.png,4,20,8,2.5,right,70,1,627.0,-1.24434416488556,2,0,2,1280.0,274.0,4.671532846715328,37.372262773722625,4.487219672106494,35.89775737685195
1,65,1,../static/images/invador2.png,4,20,8,2.5,right,70,1,852.0,-0.121677355673375,0,0,2,1280.0,276.0,4.63768115942029,37.10144927536232,4.118512697340038,32.948101578720305
1,66,1,../static/images/invador4.png,2,20,2,10.0,right,70,1,933.0,0.282482695643012,0,0,2,1280.0,278.0,4.60431654676259,9.20863309352518,3.7801017283801386,7.560203456760277
1,67,1,../static/images/invador3.png,1,80,2,40.0,right,70,1,567.0,-1.54372198067548,2,0,2,1280.0,280.0,4.571428571428571,9.142857142857142,3.469497395535831,6.938994791071662
1,68,1,../static/images/invador1.png,3,80,8,10.0,right,70,1,836.0,-0.201511439884019,0,0,2,1280.0,282.0,4.539007092198582,36.312056737588655,3.1844148762600164,25.47531901008013
1,69,1,../static/images/invador2.png,4,20,8,2.5,right,70,1,1014.0,0.686642746959399,0,0,2,1280.0,284.0,4.507042253521127,36.056338028169016,2.9227570878692046,23.382056702953637
1,70,1,../static/images/invador2.png,4,20,8,2.5,right,70,1,725.0,-0.755360399095364,2,0,2,1280.0,286.0,4.475524475524476,35.80419580419581,2.6825992612880114,21.46079409030409
1,71,1,../static/images/invador1.png,3,80,8,10.0,right,74,2,805.0,-0.356189978042142,0,0,2,1280.0,288.0,4.444444444444445,35.55555555555556,2.46217478234203,19.69739825873624
1,72,1,../static/images/invador2.png,4,20,8,2.5,right,70,1,1036.0,0.796414612749035,0,0,2,1360.0,298.0,4.563758389261745,36.51006711409396,5.124766511413295,40.99813209130636
1,73,1,../static/images/invador2.png,4,20,8,2.5,left,74,1,1125.0,1.24049170617074,0,0,2,1360.0,300.0,4.533333333333333,36.266666666666666,4.703673430422988,37.629387443383905
1,74,1,../static/images/invador4.png,2,20,2,10.0,right,70,1,589.0,-1.43395011488584,2,0,2,1360.0,302.0,4.503311258278146,9.006622516556291,4.3171808297595415,8.634361659519083
1,75,1,../static/images/invador3.png,1,80,2,40.0,left,70,0,NaN,NaN,0,1,2,1360.0,304.0,4.473684210526316,8.947368421052632,3.9624456486060122,7.9248912972120245
1,76,1,../static/images/invador2.png,4,20,8,2.5,right,74,2,1543.0,3.32615715617383,0,0,2,1360.0,314.0,4.3312101910828025,34.64968152866242,2.5809447611293272,20.647558089034618
1,77,1,../static/images/invador2.png,4,20,8,2.5,left,74,1,924.0,0.237576023274525,2,0,2,1380.0,324.0,4.2592592592592595,34.074074074074076,2.49859985969124,19.98879887752992
1,78,1,../static/images/invador2.png,4,20,8,2.5,right,70,1,1068.0,0.956082781170324,0,0,2,1380.0,326.0,4.233128834355829,33.86503067484663,2.293294289040144,18.346354312321154
1,79,1,../static/images/invador4.png,2,20,2,10.0,left,70,2,1022.0,0.726559789064722,0,0,2,1380.0,328.0,4.2073170731707314,8.414634146341463,2.1048583172473387,4.2097166344946775
1,80,1,../static/images/invador1.png,3,80,8,10.0,right,74,2,1161.0,1.42011839564469,0,0,2,1400.0,332.0,4.216867469879518,33.734939759036145,2.586148960938363,20.689191687506906
1,81,1,../static/images/invador3.png,1,80,2,40.0,left,70,2,883.0,0.0330011824847489,0,0,2,1480.0,342.0,4.3274853801169595,8.654970760233919,5.201558565821161,10.403117131642322
1,82,1,../static/images/invador2.png,4,20,8,2.5,left,74,1,924.0,0.237576023274525,0,0,2,1560.0,346.0,4.508670520231214,36.06936416184971,7.766702520741767,62.13362016593413
1,83,1,../static/images/invador2.png,4,20,8,2.5,right,70,1,1178.0,1.5049421101185,0,0,2,1560.0,348.0,4.482758620689655,35.86206896551724,7.128526188939988,57.028209511519904
1,84,1,../static/images/invador2.png,4,20,8,2.5,left,70,2,1066.0,0.946103520643994,0,0,2,1560.0,350.0,4.457142857142857,35.65714285714286,6.542787687656929,52.342301501255434
1,85,1,../static/images/invador2.png,4,20,8,2.5,right,74,2,533.0,-1.7133694096231,1,0,2,1580.0,360.0,4.388888888888889,35.111111111111114,4.952643605041997,39.62114884033598
1,86,1,../static/images/invador2.png,4,20,8,2.5,right,74,2,544.0,-1.65848347672828,1,0,2,1600.0,370.0,4.324324324324325,34.5945945945946,3.9676769588332617,31.741415670666093
1,87,1,../static/images/invador4.png,2,20,2,10.0,left,74,1,1121.0,1.22053318511808,0,0,2,1620.0,380.0,4.2631578947368425,8.526315789473685,3.3575691675013637,6.715138335002727
1,88,1,../static/images/invador2.png,4,20,8,2.5,left,70,2,1104.0,1.13570947064427,0,0,2,1620.0,382.0,4.2408376963350785,33.92670157068063,3.081683594523074,24.65346875618459
1,89,1,../static/images/invador1.png,3,80,8,10.0,right,74,2,896.0,0.0978663759058974,0,0,2,1640.0,392.0,4.183673469387755,33.46938775510204,2.808767381456467,22.470139051651735
1,90,1,../static/images/invador3.png,1,80,2,40.0,left,70,2,832.0,-0.22146996093668,0,0,2,1720.0,402.0,4.278606965174129,8.557213930348258,5.339452811656682,10.678905623313364
1,91,1,../static/images/invador2.png,4,20,8,2.5,left,70,2,672.0,-1.01981080304312,1,0,2,1800.0,406.0,4.433497536945813,35.467980295566505,7.8771719107621845,63.017375286097476
1,92,1,../static/images/invador4.png,2,20,2,10.0,left,70,2,931.0,0.272503435116682,0,0,2,1820.0,416.0,4.375,8.75,5.779187543641873,11.558375087283746
1,93,1,../static/images/invador3.png,1,80,2,40.0,left,74,1,718.0,-0.790287810937521,2,0,2,1840.0,420.0,4.380952380952381,8.761904761904763,5.529715647964236,11.059431295928473
1,94,1,../static/images/invador2.png,4,20,8,2.5,left,74,1,685.0,-0.954945609621975,2,0,2,1840.0,422.0,4.360189573459715,34.88151658767772,5.075348606262776,40.60278885010221
1,95,1,../static/images/invador2.png,4,20,8,2.5,left,74,1,1211.0,1.66959990880296,0,0,2,1840.0,424.0,4.339622641509434,34.716981132075475,4.658316107913566,37.26652886330853
1,96,1,../static/images/invador1.png,3,80,8,10.0,right,74,2,905.0,0.142773048274385,0,0,2,1840.0,426.0,4.31924882629108,34.55399061032864,4.275550438933432,34.204403511467454
1,97,1,../static/images/invador2.png,4,20,8,2.5,left,74,1,1021.0,0.721570158801556,0,0,2,1920.0,436.0,4.4036697247706424,35.22935779816514,6.248007202817936,49.98405762254349
1,98,1,../static/images/invador2.png,4,20,8,2.5,right,70,1,971.0,0.472088645643293,0,0,2,1920.0,438.0,4.383561643835616,35.06849315068493,5.7346194031543245,45.876955225234596
1,99,1,../static/images/invador2.png,4,20,8,2.5,left,74,1,995.0,0.591839771959259,0,0,2,1920.0,440.0,4.363636363636363,34.90909090909091,5.2634157790666585,42.10732623253327
1,100,1,../static/images/invador4.png,2,20,2,10.0,right,74,2,1089.0,1.06086501669679,0,0,2,1920.0,442.0,4.343891402714932,8.687782805429864,4.83093013079291,9.66186026158582
1,101,1,../static/images/invador3.png,1,80,2,40.0,left,70,2,804.0,-0.361179608305308,0,0,2,1940.0,446.0,4.349775784753363,8.699551569506726,4.770050751542723,9.540101503085445
1,102,1,../static/images/invador2.png,4,20,8,2.5,right,70,1,994.0,0.586850141696094,0,0,2,2020.0,450.0,4.488888888888889,35.91111111111111,7.421014383114612,59.36811506491689
1,103,1,../static/images/invador1.png,3,80,8,10.0,left,70,2,1199.0,1.60972434564497,0,0,2,2020.0,452.0,4.469026548672566,35.75221238938053,6.811242639621594,54.48994111697275
1,104,1,../static/images/invador2.png,4,20,8,2.5,right,74,2,563.0,-1.56368050172814,1,0,2,2100.0,462.0,4.545454545454546,36.36363636363637,7.818665025612397,62.549320204899175
1,105,1,../static/images/invador2.png,4,20,8,2.5,left,74,1,939.0,0.312420477222004,0,0,2,2120.0,472.0,4.491525423728813,35.932203389830505,5.742947223612923,45.94357778890338
1,106,1,../static/images/invador2.png,4,20,8,2.5,right,70,1,952.0,0.377285670643153,0,0,2,2120.0,474.0,4.472573839662447,35.780590717299575,5.271059317116091,42.16847453692873
1,107,1,../static/images/invador1.png,3,80,8,10.0,left,70,2,933.0,0.282482695643012,1,0,2,2120.0,476.0,4.453781512605042,35.63025210084034,4.837945612719252,38.703564901754014
1,108,1,../static/images/invador2.png,4,20,8,2.5,left,74,1,963.0,0.432171603537971,0,0,2,2200.0,486.0,4.526748971193416,36.21399176954733,6.5963658793831845,52.770927035065476
1,109,1,../static/images/invador4.png,2,20,2,10.0,left,74,1,878.0,0.00805303116892254,0,0,2,2200.0,488.0,4.508196721311475,9.01639344262295,6.0543540579074815,12.108708115814963
1,110,1,../static/images/invador3.png,1,80,2,40.0,left,70,2,809.0,-0.336231456989481,0,0,2,2200.0,490.0,4.489795918367347,8.979591836734693,5.5568783977047005,11.113756795409401
1,111,1,../static/images/invador2.png,4,20,8,2.5,right,70,1,814.0,-0.311283305673655,0,0,2,2280.0,494.0,4.615384615384615,36.92307692307692,8.051355189549653,64.41084151639723
1,112,1,../static/images/invador2.png,4,20,8,2.5,left,74,1,890.0,0.0679285943269058,0,0,2,2280.0,496.0,4.596774193548387,36.774193548387096,7.389789446922332,59.11831557537866
1,113,1,../static/images/invador2.png,4,20,8,2.5,right,70,1,935.0,0.292461956169343,0,0,2,2280.0,498.0,4.578313253012048,36.626506024096386,6.782583401701744,54.26066721361395
1,114,1,../static/images/invador2.png,4,20,8,2.5,left,74,1,900.0,0.117824896958559,0,0,2,2280.0,500.0,4.56,36.48,6.2252704128396115,49.80216330271689
1,115,1,../static/images/invador3.png,1,80,2,40.0,right,74,2,783.0,-0.465961843831778,0,0,2,2280.0,502.0,4.54183266932271,9.08366533864542,5.7137508553529806,11.427501710705961
1,116,1,../static/images/invador4.png,2,20,2,10.0,left,70,2,1158.0,1.4051495048552,0,0,2,2360.0,506.0,4.664031620553359,9.328063241106719,8.177028342931846,16.354056685863693
1,117,1,../static/images/invador2.png,4,20,8,2.5,left,74,1,927.0,0.252544914064021,0,0,2,2380.0,510.0,4.666666666666667,37.333333333333336,7.450666075290909,59.60532860232727
1,118,1,../static/images/invador1.png,3,80,8,10.0,right,70,1,1067.0,0.951093150907159,0,0,2,2380.0,512.0,4.6484375,37.1875,6.838457904228501,54.70766323382801
1,119,1,../static/images/invador2.png,4,20,8,2.5,left,74,1,694.0,-0.910038937253487,1,0,2,2380.0,514.0,4.63035019455253,37.04280155642024,6.2765538054366985,50.21243044349359
1,120,1,../static/images/invador4.png,2,20,2,10.0,right,70,1,6.0,-4.34290455831119,0,0,2,2380.0,516.0,4.612403100775194,9.224806201550388,5.760820381475517,11.521640762951034
1,121,1,../static/images/invador2.png,4,20,8,2.5,left,70,2,1019.0,0.711590898275226,0,0,2,2380.0,518.0,4.594594594594595,36.75675675675676,5.287463868927145,42.29971095141716
1,122,1,../static/images/invador1.png,3,80,8,10.0,left,70,2,1071.0,0.97105167195982,0,0,2,2400.0,528.0,4.545454545454546,36.36363636363637,4.175071242160944,33.40056993728755
1,123,1,../static/images/invador3.png,1,80,2,40.0,left,70,2,1138.0,1.30535689959189,0,0,2,2480.0,538.0,4.609665427509293,9.219330855018587,6.1857684041199,12.3715368082398
1,124,1,../static/images/invador2.png,4,20,8,2.5,right,70,1,538.0,-1.68842125830727,2,0,2,2560.0,542.0,4.723247232472325,37.7859778597786,8.555169507381958,68.44135605905566
1,125,1,../static/images/invador2.png,4,20,8,2.5,right,70,1,1110.0,1.16564725222327,0,0,2,2560.0,544.0,4.705882352941177,37.64705882352941,7.852206225399322,62.81764980319458
1,126,1,../static/images/invador2.png,4,20,8,2.5,right,70,1,1074.0,0.986020562749316,0,0,2,2560.0,546.0,4.688644688644689,37.50915750915751,7.207004204066099,57.65603363252879
1,127,1,../static/images/invador2.png,4,20,8,2.5,left,74,1,827.0,-0.246418112252506,0,0,2,2560.0,548.0,4.671532846715328,37.372262773722625,6.614817301844995,52.91853841475996
1,128,1,../static/images/invador1.png,3,80,8,10.0,left,74,1,855.0,-0.106708464883879,0,0,2,2560.0,550.0,4.654545454545454,37.236363636363635,6.071289359329281,48.57031487463425
1,129,1,../static/images/invador2.png,4,20,8,2.5,right,70,1,770.0,-0.530827037252927,0,0,2,2560.0,552.0,4.63768115942029,37.10144927536232,5.572422155094724,44.57937724075779
1,130,1,../static/images/invador4.png,2,20,2,10.0,left,74,1,893.0,0.0828974851164016,0,0,2,2560.0,554.0,4.620938628158845,9.24187725631769,5.114545994562999,10.229091989125997
1,131,1,../static/images/invador2.png,4,20,8,2.5,right,70,1,899.0,0.112835266695393,0,0,2,2560.0,556.0,4.60431654676259,36.83453237410072,4.694292715526639,37.55434172421311
1,132,1,../static/images/invador3.png,1,80,2,40.0,right,70,1,523.0,-1.76326571225475,2,0,2,2560.0,558.0,4.587813620071684,9.175627240143369,4.30857091176268,8.61714182352536
1,133,1,../static/images/invador3.png,1,80,2,40.0,right,74,2,736.0,-0.700474466200546,0,0,2,2560.0,560.0,4.571428571428571,9.142857142857142,3.954543192478545,7.90908638495709
1,134,1,../static/images/invador2.png,4,20,8,2.5,right,74,2,627.0,-1.24434416488556,1,0,2,2640.0,564.0,4.680851063829787,37.4468085106383,6.767697618074857,54.14158094459886
1,135,1,../static/images/invador1.png,3,80,8,10.0,right,74,2,1111.0,1.17063688248643,0,0,2,2660.0,574.0,4.634146341463414,37.073170731707314,5.091957257361158,40.735658058889264
1,136,1,../static/images/invador4.png,2,20,2,10.0,left,74,1,937.0,0.302441216695674,0,0,2,2740.0,584.0,4.691780821917808,9.383561643835616,6.75370570818,13.50741141636
1,137,1,../static/images/invador2.png,4,20,8,2.5,left,74,1,1076.0,0.995999823275646,0,0,2,2740.0,586.0,4.675767918088737,37.406143344709896,6.1987655487745625,49.5901243901965
1,138,1,../static/images/invador2.png,4,20,8,2.5,right,70,1,1008.0,0.656704965380408,0,0,2,2740.0,588.0,4.659863945578231,37.27891156462585,5.689423849507525,45.5153907960602
1,139,1,../static/images/invador2.png,4,20,8,2.5,left,74,1,856.0,-0.101718834620713,0,0,2,2740.0,590.0,4.6440677966101696,37.152542372881356,5.221933864839295,41.77547091871436
1,140,1,../static/images/invador2.png,4,20,8,2.5,right,70,1,833.0,-0.216480330673515,0,0,2,2740.0,592.0,4.628378378378378,37.027027027027025,4.792856712743562,38.3428537019485
1,141,1,../static/images/invador2.png,4,20,8,2.5,left,74,1,827.0,-0.246418112252506,0,0,2,2740.0,594.0,4.6127946127946124,36.9023569023569,4.399036078102068,35.19228862481654
1,142,1,../static/images/invador4.png,2,20,2,10.0,right,74,2,1009.0,0.661694595643573,0,0,2,2740.0,596.0,4.597315436241611,9.194630872483222,4.037574994677085,8.07514998935417
1,143,1,../static/images/invador3.png,1,80,2,40.0,left,70,2,805.0,-0.356189978042142,0,0,2,2760.0,600.0,4.6,9.2,4.134480663572422,8.268961327144844
1,144,1,../static/images/invador2.png,4,20,8,2.5,right,70,1,748.0,-0.640598903042563,0,0,2,2840.0,604.0,4.701986754966887,37.615894039735096,6.911848540059426,55.294788320475405
1,145,1,../static/images/invador1.png,3,80,8,10.0,right,70,1,616.0,-1.29923009778038,2,0,2,2840.0,606.0,4.686468646864687,37.491749174917494,6.343914061368547,50.75131249094838
1,146,1,../static/images/invador2.png,4,20,8,2.5,left,74,1,927.0,0.252544914064021,0,0,2,2840.0,608.0,4.671052631578948,37.36842105263158,5.822645763253886,46.58116610603109
1,147,1,../static/images/invador2.png,4,20,8,2.5,left,74,1,1303.0,2.12864589301416,0,0,2,2840.0,610.0,4.655737704918033,37.24590163934426,5.344209167459093,42.753673339672744
1,148,1,../static/images/invador1.png,3,80,8,10.0,right,70,1,621.0,-1.27428194646455,2,0,2,2840.0,612.0,4.640522875816994,37.12418300653595,4.905084868084646,39.24067894467717
1,149,1,../static/images/invador3.png,1,80,2,40.0,left,70,2,931.0,0.272503435116682,0,0,2,2840.0,614.0,4.625407166123779,9.250814332247558,4.5020426426445885,9.004085285289177
1,150,1,../static/images/invador4.png,2,20,2,10.0,left,70,2,607.0,-1.34413677014887,1,0,2,2920.0,618.0,4.724919093851133,9.449838187702266,7.20630859803191,14.41261719606382
1,151,1,../static/images/invador2.png,4,20,8,2.5,left,74,1,872.0,-0.0218847504100691,0,0,2,2940.0,622.0,4.726688102893891,37.81350482315113,6.673006228426958,53.384049827415666
1,152,1,../static/images/invador2.png,4,20,8,2.5,right,70,1,976.0,0.497036796959119,0,0,2,2940.0,624.0,4.711538461538462,37.69230769230769,6.124697003813934,48.997576030511475
1,153,1,../static/images/invador2.png,4,20,8,2.5,left,74,1,970.0,0.467099015380127,0,0,2,2940.0,626.0,4.696485623003195,37.57188498402556,5.621441387050847,44.97153109640678
1,154,1,../static/images/invador2.png,4,20,8,2.5,right,70,1,819.0,-0.286335154357828,0,0,2,2940.0,628.0,4.681528662420382,37.452229299363054,5.15953740215557,41.27629921724456
1,155,1,../static/images/invador3.png,1,80,2,40.0,left,70,2,876.0,-0.001926229357408,0,0,2,2940.0,630.0,4.666666666666667,9.333333333333334,4.7355872580232,9.4711745160464
1,156,1,../static/images/invador2.png,4,20,8,2.5,left,74,1,583.0,-1.46388789646483,2,0,2,3020.0,634.0,4.763406940063091,38.10725552050473,7.393405101204361,59.14724080963489
1,157,1,../static/images/invador4.png,2,20,2,10.0,left,74,1,989.0,0.561901990380268,0,0,2,3020.0,636.0,4.748427672955975,9.49685534591195,6.785901964009333,13.571803928018666
1,158,1,../static/images/invador2.png,4,20,8,2.5,right,70,1,865.0,-0.056812162252226,0,0,2,3020.0,638.0,4.733542319749216,37.86833855799373,6.228316294699526,49.826530357596205
1,159,1,../static/images/invador2.png,4,20,8,2.5,right,70,1,841.0,-0.176563288568193,0,0,2,3020.0,640.0,4.71875,37.75,5.716546462439621,45.73237169951697
1,160,1,../static/images/invador1.png,3,80,8,10.0,left,70,2,815.0,-0.30629367541049,0,0,2,3020.0,642.0,4.70404984423676,37.63239875389408,5.24682786021025,41.974622881682
1,161,1,../static/images/invador2.png,4,20,8,2.5,right,70,1,913.0,0.182690090379707,0,0,2,3100.0,652.0,4.754601226993865,38.03680981595092,6.849635617898461,54.79708494318769
1,162,1,../static/images/invador1.png,3,80,8,10.0,right,70,1,615.0,-1.30421972804354,2,0,2,3100.0,654.0,4.740061162079511,37.920489296636084,6.28681306596792,50.29450452774336
1,163,1,../static/images/invador4.png,2,20,2,10.0,left,70,2,1038.0,0.806393873275366,0,0,2,3100.0,656.0,4.725609756097561,9.451219512195122,5.770236656552444,11.540473313104888
1,164,1,../static/images/invador2.png,4,20,8,2.5,right,70,1,735.0,-0.705464096463711,0,0,2,3120.0,660.0,4.7272727272727275,37.81818181818182,5.522544942392589,44.18035953914071
1,165,1,../static/images/invador2.png,4,20,8,2.5,right,70,1,777.0,-0.49589962541077,0,0,2,3120.0,662.0,4.712990936555891,37.70392749244713,5.0687671049983525,40.55013683998682
1,166,1,../static/images/invador2.png,4,20,8,2.5,left,70,2,626.0,-1.24933379514873,1,0,2,3120.0,664.0,4.698795180722891,37.59036144578313,4.6522753970712625,37.2182031765701
1,167,1,../static/images/invador3.png,1,80,2,40.0,left,70,2,842.0,-0.171573658305027,0,0,2,3140.0,674.0,4.658753709198813,9.317507418397627,3.7816229592823896,7.563245918564779
1,168,1,../static/images/invador2.png,4,20,8,2.5,left,74,1,1079.0,1.01096871406514,0,0,2,3220.0,678.0,4.7492625368731565,37.99410029498525,6.629168322906494,53.033346583251955
1,169,1,../static/images/invador2.png,4,20,8,2.5,left,74,1,978.0,0.50701605748545,0,0,2,3220.0,680.0,4.735294117647059,37.88235294117647,6.0844611821462005,48.675689457169604
1,170,1,../static/images/invador2.png,4,20,8,2.5,left,74,1,921.0,0.222607132485029,0,0,2,3220.0,682.0,4.721407624633431,37.77126099706745,5.584511672319793,44.67609337855834
1,171,1,../static/images/invador4.png,2,20,2,10.0,right,70,1,783.0,-0.465961843831778,0,0,2,3220.0,684.0,4.707602339181286,9.415204678362572,5.125642137349515,10.25128427469903
1,172,1,../static/images/invador2.png,4,20,8,2.5,right,70,1,969.0,0.462109385116962,0,0,2,3220.0,686.0,4.6938775510204085,37.55102040816327,4.704477107710922,37.635816861687374
1,173,1,../static/images/invador1.png,3,80,8,10.0,right,70,1,818.0,-0.291324784620994,0,0,2,3220.0,688.0,4.680232558139535,37.44186046511628,4.3179184702935,34.543347762348
1,174,1,../static/images/invador3.png,1,80,2,40.0,left,70,2,965.0,0.442150864064301,0,0,2,3220.0,690.0,4.666666666666667,9.333333333333334,3.963122678510312,7.926245357020624
1,175,1,../static/images/invador3.png,1,80,2,40.0,left,70,2,872.0,-0.0218847504100691,1,0,2,3300.0,694.0,4.755043227665706,9.510086455331413,6.77457078803837,13.54914157607674
1,176,1,../static/images/invador4.png,2,20,2,10.0,left,74,1,918.0,0.207638241695533,0,0,2,3380.0,698.0,4.842406876790831,9.684813753581661,9.026868959378133,18.053737918756266
1,177,1,../static/images/invador2.png,4,20,8,2.5,right,70,1,971.0,0.472088645643293,0,0,2,3380.0,700.0,4.828571428571428,38.628571428571426,8.285146960271478,66.28117568217182
1,178,1,../static/images/invador2.png,4,20,8,2.5,left,74,1,947.0,0.352337519327326,0,0,2,3380.0,702.0,4.814814814814815,38.51851851851852,7.604370957659789,60.83496766127831
1,179,1,../static/images/invador2.png,4,20,8,2.5,left,74,1,871.0,-0.0268743806732344,0,0,2,3380.0,704.0,4.801136363636363,38.40909090909091,6.979533125843898,55.836265006751184
1,180,1,../static/images/invador2.png,4,20,8,2.5,left,74,1,880.0,0.0180322916952531,0,0,2,3380.0,706.0,4.787535410764873,38.30028328611898,6.406037123384071,51.24829698707257
1,181,1,../static/images/invador1.png,3,80,8,10.0,left,70,2,934.0,0.287472325906178,0,0,2,3380.0,708.0,4.7740112994350286,38.19209039548023,5.879664282159708,47.037314257277664
1,182,1,../static/images/invador2.png,4,20,8,2.5,left,74,1,897.0,0.102856006169063,0,0,2,3460.0,718.0,4.818941504178273,38.551532033426184,7.241626994617771,57.93301595694217
1,183,1,../static/images/invador4.png,2,20,2,10.0,left,74,1,823.0,-0.266376633305167,0,0,2,3460.0,720.0,4.805555555555555,9.61111111111111,6.64659519838766,13.29319039677532
1,184,1,../static/images/invador1.png,3,80,8,10.0,right,74,2,1055.0,0.891217587749176,0,0,2,3460.0,722.0,4.792243767313019,38.337950138504155,6.1004561218168165,48.80364897453453
1,185,1,../static/images/invador2.png,4,20,8,2.5,left,74,1,516.0,-1.79819312409691,2,0,2,3540.0,732.0,4.836065573770492,38.68852459016394,7.378389820197512,59.027118561580096
1,186,1,../static/images/invador2.png,4,20,8,2.5,left,74,1,988.0,0.556912360117102,0,0,2,3540.0,734.0,4.822888283378747,38.583106267029976,6.772120462322386,54.17696369857909
1,187,1,../static/images/invador2.png,4,20,8,2.5,right,70,1,1029.0,0.761487200906878,0,0,2,3540.0,736.0,4.809782608695652,38.47826086956522,6.215667194848468,49.72533755878774
1,188,1,../static/images/invador3.png,1,80,2,40.0,left,70,2,824.0,-0.261387003042002,1,0,2,3540.0,738.0,4.796747967479675,9.59349593495935,5.704936716950597,11.409873433901193
1,189,1,../static/images/invador1.png,3,80,8,10.0,left,74,1,925.0,0.24256565353769,0,0,2,3620.0,742.0,4.878706199460916,39.02964959568733,8.169967189023886,65.35973751219109
1,190,1,../static/images/invador2.png,4,20,8,2.5,left,70,2,535.0,-1.70339014909677,1,0,2,3620.0,744.0,4.865591397849462,38.924731182795696,7.498655306315882,59.98924245052706
1,191,1,../static/images/invador4.png,2,20,2,10.0,right,70,1,523.0,-1.76326571225475,2,0,2,3640.0,754.0,4.827586206896552,9.655172413793103,5.544726884075291,11.089453768150582
1,192,1,../static/images/invador2.png,4,20,8,2.5,right,70,1,868.0,-0.0418432714627302,0,0,2,3640.0,756.0,4.814814814814815,38.51851851851852,5.089126395415926,40.71301116332741
1,193,1,../static/images/invador3.png,1,80,2,40.0,right,70,1,539.0,-1.6834316280441,2,0,2,3640.0,758.0,4.802110817941952,9.604221635883905,4.670961800283221,9.341923600566442
1,194,1,../static/images/invador2.png,4,20,8,2.5,left,74,1,867.0,-0.0468329017258954,0,0,2,3640.0,760.0,4.7894736842105265,38.31578947368421,4.287157056927828,34.29725645542263
1,195,1,../static/images/invador2.png,4,20,8,2.5,left,74,1,902.0,0.127804157484889,0,0,2,3640.0,762.0,4.776902887139108,38.21522309711286,3.9348888765589205,31.479111012471364
1,196,1,../static/images/invador1.png,3,80,8,10.0,left,70,2,1069.0,0.961072411433489,0,0,2,3640.0,764.0,4.7643979057591626,38.1151832460733,3.6115659550766432,28.892527640613146
1,197,1,../static/images/invador4.png,2,20,2,10.0,right,70,1,874.0,-0.0119054898837385,0,0,2,3720.0,774.0,4.8062015503875966,9.612403100775193,5.836722101455565,11.67344420291113
1,198,1,../static/images/invador2.png,4,20,8,2.5,right,70,1,657.0,-1.0946552569906,2,0,2,3720.0,776.0,4.793814432989691,38.350515463917525,5.357128877625288,42.85703102100231
1,199,1,../static/images/invador2.png,4,20,8,2.5,left,70,2,1226.0,1.74444436275044,0,0,2,3720.0,778.0,4.781491002570694,38.25192802056555,4.916942988313569,39.335543906508555
1,200,1,../static/images/invador3.png,1,80,2,40.0,right,74,2,808.0,-0.341221087252646,0,0,2,3740.0,788.0,4.746192893401015,9.49238578680203,3.9455632918322445,7.891126583664489
1,201,1,../static/images/invador2.png,4,20,8,2.5,right,70,1,987.0,0.551922729853937,0,0,2,3820.0,792.0,4.8232323232323235,38.58585858585859,6.760503669256833,54.084029354054664
1,202,1,../static/images/invador2.png,4,20,8,2.5,right,74,2,660.0,-1.07968636620111,1,0,2,3820.0,794.0,4.811083123425693,38.48866498740554,6.205004933305924,49.64003946644739
1,203,1,../static/images/invador2.png,4,20,8,2.5,right,70,1,916.0,0.197658981169203,0,0,2,3840.0,804.0,4.776119402985074,38.208955223880594,4.743414296617859,37.94731437294287
1,204,1,../static/images/invador1.png,3,80,8,10.0,right,74,2,1034.0,0.786435352222705,0,0,2,3840.0,806.0,4.764267990074441,38.11414392059553,4.353656258641327,34.829250069130616
1,205,1,../static/images/invador3.png,1,80,2,40.0,left,70,2,571.0,-1.52376345962282,1,0,2,3920.0,816.0,4.803921568627451,9.607843137254902,6.296387489942961,12.592774979885922
1,206,1,../static/images/invador4.png,2,20,2,10.0,left,70,2,1038.0,0.806393873275366,0,0,2,4000.0,820.0,4.878048780487805,9.75609756097561,8.643788309866768,17.287576619733535
1,207,1,../static/images/invador2.png,4,20,8,2.5,left,74,1,1034.0,0.786435352222705,0,0,2,4020.0,824.0,4.878640776699029,39.029126213592235,7.824595302872706,62.59676242298165
1,208,1,../static/images/invador2.png,4,20,8,2.5,left,74,1,1040.0,0.816373133801697,1,0,2,4020.0,826.0,4.86682808716707,38.93462469733656,7.181662022644042,57.45329618115234
1,209,1,../static/images/invador2.png,4,20,8,2.5,left,70,2,0.0,-4.37284233989019,0,0,2,4020.0,828.0,4.855072463768116,38.84057971014493,6.591557443047836,52.732459544382685
1,210,1,../static/images/invador2.png,4,20,8,2.5,left,74,1,1020.0,0.716580528538391,0,0,2,4040.0,838.0,4.821002386634845,38.56801909307876,4.982852554613917,39.862820436911335
1,211,0,../static/images/invador4.png,2,20,2,10.0,right,70,1,739.0,-0.68550557541105,2,0,2,4040.0,840.0,4.809523809523809,9.619047619047619,4.573420294691474,9.146840589382949
1,212,0,../static/images/invador3.png,1,80,2,40.0,left,70,2,552.0,-1.61856643462296,1,0,2,4040.0,842.0,4.798099762470309,9.596199524940618,4.197630365869111,8.395260731738222
1,213,0,../static/images/invador2.png,4,20,8,2.5,left,74,1,987.0,0.551922729853937,0,0,2,4120.0,846.0,4.869976359338062,38.959810874704495,6.962438824305275,55.6995105944422
1,214,0,../static/images/invador3.png,1,80,2,40.0,right,74,2,1055.0,0.891217587749176,0,0,2,4120.0,848.0,4.8584905660377355,9.716981132075471,6.390347430638112,12.780694861276224
1,215,0,../static/images/invador1.png,3,80,8,10.0,right,70,1,867.0,-0.0468329017258954,0,0,2,4200.0,852.0,4.929577464788732,39.436619718309856,8.71906119215461,69.75248953723688
1,216,0,../static/images/invador3.png,1,80,2,40.0,right,74,2,1061.0,0.921155369328167,0,0,2,4200.0,854.0,4.918032786885246,9.836065573770492,8.002631217721515,16.00526243544303
1,217,0,../static/images/invador3.png,1,80,2,40.0,left,70,2,599.0,-1.38405381225419,1,0,2,4280.0,858.0,4.988344988344989,9.976689976689977,10.0106887391906,20.0213774783812
1,218,0,../static/images/invador4.png,2,20,2,10.0,left,74,1,1198.0,1.60473471538181,0,0,2,4360.0,862.0,5.058004640371229,10.116009280742459,11.61937725391801,23.23875450783602
1,219,0,../static/images/invador3.png,1,80,2,40.0,right,74,2,753.0,-0.615650751726736,0,0,2,4360.0,864.0,5.046296296296297,10.092592592592593,10.664633392681747,21.329266785363494
1,220,0,../static/images/invador3.png,1,80,2,40.0,left,70,2,1062.0,0.926144999591332,0,0,2,4440.0,868.0,5.11520737327189,10.23041474654378,12.143263269179652,24.286526538359304
1,221,0,../static/images/invador3.png,1,80,2,40.0,left,70,2,717.0,-0.795277441200686,1,0,2,4520.0,872.0,5.18348623853211,10.36697247706422,13.327818429788188,26.655636859576376
1,222,0,../static/images/invador2.png,4,20,8,2.5,right,70,1,1092.0,1.07583390748629,0,0,2,4600.0,876.0,5.251141552511416,42.009132420091326,14.276785409846571,114.21428327877257
1,223,0,../static/images/invador1.png,3,80,8,10.0,left,70,2,1159.0,1.41013913511836,0,0,2,4600.0,878.0,5.239179954441913,41.913439635535305,13.103686978633982,104.82949582907186
1,224,0,../static/images/invador3.png,1,80,2,40.0,left,70,2,1082.0,1.02593760485464,0,0,2,4680.0,888.0,5.27027027027027,10.54054054054054,11.716329309505491,23.432658619010983
1,225,0,../static/images/invador1.png,3,80,8,10.0,left,70,2,548.0,-1.63852495567562,1,0,2,4760.0,892.0,5.336322869955157,42.690582959641254,12.985794483695022,103.88635586956018
1,226,0,../static/images/invador3.png,1,80,2,40.0,right,74,2,988.0,0.556912360117102,0,0,2,4840.0,902.0,5.365853658536586,10.731707317073171,11.643304370053306,23.28660874010661
1,227,0,../static/images/invador2.png,4,20,8,2.5,right,70,1,507.0,-1.84309979646539,2,0,2,4920.0,906.0,5.430463576158941,43.443708609271525,12.92729298155705,103.4183438524564
1,228,0,../static/images/invador3.png,1,80,2,40.0,right,74,2,966.0,0.447140494327466,0,0,2,4920.0,908.0,5.418502202643172,10.837004405286343,11.865079977638748,23.730159955277497
1,229,0,../static/images/invador4.png,2,20,2,10.0,right,70,1,947.0,0.352337519327326,0,0,2,5000.0,912.0,5.482456140350878,10.964912280701755,13.104961135459527,26.209922270919055
1,230,0,../static/images/invador3.png,1,80,2,40.0,right,74,2,968.0,0.457119754853797,0,0,2,5000.0,914.0,5.470459518599562,10.940919037199125,12.028149450771275,24.05629890154255
1,231,0,../static/images/invador3.png,1,80,2,40.0,left,70,2,1061.0,0.921155369328167,0,0,2,5080.0,918.0,5.533769063180828,11.067538126361656,13.235598821744045,26.47119764348809
1,232,0,../static/images/invador2.png,4,20,8,2.5,right,74,2,525.0,-1.75328645172842,1,0,2,5160.0,922.0,5.596529284164859,44.77223427331887,14.202906737195429,113.62325389756343
1,233,0,../static/images/invador3.png,1,80,2,40.0,right,74,2,960.0,0.417202712748475,0,0,2,5180.0,932.0,5.55793991416309,11.11587982832618,9.697472612848742,19.394945225697484
1,234,0,../static/images/invador3.png,1,80,2,40.0,right,74,2,946.0,0.347347889064161,0,0,2,5260.0,936.0,5.619658119658119,11.239316239316238,11.368454568842273,22.736909137684545
1,235,0,../static/images/invador3.png,1,80,2,40.0,right,74,2,952.0,0.377285670643153,0,0,2,5340.0,940.0,5.680851063829787,11.361702127659575,12.707106202166473,25.414212404332947
1,236,0,../static/images/invador4.png,2,20,2,10.0,left,70,2,712.0,-0.820225592516513,1,0,2,5420.0,944.0,5.741525423728813,11.483050847457626,13.77952244758073,27.55904489516146
1,237,0,../static/images/invador1.png,3,80,8,10.0,left,70,2,468.0,-2.03769537672884,1,0,2,5440.0,948.0,5.738396624472574,45.90717299578059,11.938917942390344,95.51134353912275
1,238,0,../static/images/invador4.png,2,20,2,10.0,left,74,1,1100.0,1.11575094959161,0,0,2,5520.0,958.0,5.762004175365345,11.52400835073069,10.994848367130727,21.989696734261454
1,239,0,../static/images/invador3.png,1,80,2,40.0,right,74,2,801.0,-0.376148499094803,0,0,2,5520.0,960.0,5.75,11.5,10.09142094977908,20.18284189955816
1,240,0,../static/images/invador3.png,1,80,2,40.0,left,70,2,1013.0,0.681653116696234,0,0,2,5600.0,964.0,5.809128630705394,11.618257261410788,11.684053180057433,23.368106360114865
1,241,0,../static/images/invador3.png,1,80,2,40.0,left,74,1,563.0,-1.56368050172814,2,0,2,5680.0,968.0,5.867768595041323,11.735537190082646,12.959937535780023,25.919875071560046
1,242,0,../static/images/invador2.png,4,20,8,2.5,left,74,1,993.0,0.581860511432929,0,0,2,5680.0,970.0,5.855670103092783,46.845360824742265,11.895042186064172,95.16033748851338
1,243,0,../static/images/invador1.png,3,80,8,10.0,left,74,1,1206.0,1.64465175748713,0,0,2,5680.0,972.0,5.843621399176954,46.748971193415635,10.91764742056917,87.34117936455335
1,244,0,../static/images/invador3.png,1,80,2,40.0,left,70,2,889.0,0.0629389640637405,0,0,2,5680.0,974.0,5.831622176591376,11.663244353182751,10.020563469670204,20.04112693934041
1,245,0,../static/images/invador3.png,1,80,2,40.0,right,74,2,1068.0,0.956082781170324,0,0,2,5760.0,978.0,5.889570552147239,11.779141104294478,11.627288065903592,23.254576131807184
1,246,0,../static/images/invador2.png,4,20,8,2.5,right,70,1,999.0,0.61179829301192,0,0,2,5840.0,982.0,5.94704684317719,47.57637474541752,12.914462052035086,103.31569641628069
1,247,0,../static/images/invador3.png,1,80,2,40.0,right,74,2,811.0,-0.326252196463151,0,0,2,5840.0,984.0,5.934959349593496,11.869918699186991,11.853303343104143,23.706606686208286
1,248,0,../static/images/invador3.png,1,80,2,40.0,right,74,2,879.0,0.0130426614320878,0,0,2,5920.0,988.0,5.991902834008097,11.983805668016194,13.095526676279242,26.191053352558484
1,249,0,../static/images/invador1.png,3,80,8,10.0,left,70,2,1212.0,1.67458953906612,0,0,2,6000.0,992.0,6.048387096774194,48.38709677419355,14.090692595302917,112.72554076242334
1,250,0,../static/images/invador4.png,2,20,2,10.0,left,74,1,1125.0,1.24049170617074,0,0,2,6080.0,1002.0,6.067864271457085,12.13572854291417,12.327700079405094,24.65540015881019
1,251,0,../static/images/invador3.png,1,80,2,40.0,left,70,2,856.0,-0.101718834620713,0,0,2,6080.0,1004.0,6.055776892430279,12.111553784860558,11.314754573224452,22.629509146448903
1,252,0,../static/images/invador2.png,4,20,8,2.5,left,74,1,1070.0,0.966062041696655,0,0,2,6160.0,1008.0,6.111111111111111,48.888888888888886,12.66408623622043,101.31268988976343
1,253,0,../static/images/invador1.png,3,80,8,10.0,right,70,1,1010.0,0.666684225906738,0,0,2,6160.0,1010.0,6.099009900990099,48.79207920792079,11.623500469188802,92.98800375351041
1,254,0,../static/images/invador3.png,1,80,2,40.0,left,74,1,946.0,0.347347889064161,2,0,2,6160.0,1012.0,6.086956521739131,12.173913043478262,10.66841781058136,21.33683562116272
1,255,0,../static/images/invador3.png,1,80,2,40.0,left,70,2,791.0,-0.426044801726456,0,0,2,6160.0,1014.0,6.074950690335306,12.149901380670611,9.791812619858112,19.583625239716223
1,256,0,../static/images/invador3.png,1,80,2,40.0,left,70,2,996.0,0.596829402222425,0,0,2,6240.0,1018.0,6.129666011787819,12.259332023575638,11.444031928620415,22.88806385724083
1,257,0,../static/images/invador4.png,2,20,2,10.0,left,70,2,572.0,-1.51877382935965,1,0,2,6320.0,1022.0,6.183953033268102,12.367906066536204,12.767652490979737,25.535304981959474
1,258,0,../static/images/invador3.png,1,80,2,40.0,left,70,2,896.0,0.0978663759058974,0,0,2,6340.0,1026.0,6.179337231968811,12.358674463937621,11.12829197168067,22.25658394336134
1,259,0,../static/images/invador3.png,1,80,2,40.0,right,74,2,946.0,0.347347889064161,0,0,2,6420.0,1030.0,6.233009708737864,12.466019417475728,12.514707922938731,25.029415845877462
1,260,0,../static/images/invador1.png,3,80,8,10.0,right,70,1,972.0,0.477078275906458,0,0,2,6500.0,1034.0,6.286266924564797,50.29013539651837,13.625388963485836,109.00311170788669
1,261,0,../static/images/invador3.png,1,80,2,40.0,right,74,2,860.0,-0.0817603135680523,0,0,2,6500.0,1036.0,6.274131274131274,12.548262548262548,12.505814636431609,25.011629272863217
1,262,0,../static/images/invador4.png,2,20,2,10.0,left,70,2,423.0,-2.26222873857128,1,0,2,6580.0,1040.0,6.326923076923077,12.653846153846153,13.618264402705464,27.236528805410927
1,263,0,../static/images/invador3.png,1,80,2,40.0,right,74,2,529.0,-1.73332793067576,1,0,2,6600.0,1044.0,6.32183908045977,12.64367816091954,11.809731421623523,23.619462843247046
1,264,0,../static/images/invador3.png,1,80,2,40.0,left,70,2,435.0,-2.20235317541329,1,0,2,6680.0,1048.0,6.374045801526718,12.748091603053435,13.060620480166294,26.12124096033259
1,265,0,../static/images/invador2.png,4,20,8,2.5,left,70,2,567.0,-1.54372198067548,1,0,2,6760.0,1052.0,6.425855513307985,51.40684410646388,14.062728656929956,112.50182925543965
1,266,0,../static/images/invador3.png,1,80,2,40.0,right,74,2,988.0,0.556912360117102,0,0,2,6780.0,1062.0,6.3841807909604515,12.768361581920903,9.610643541759782,19.221287083519563
1,267,0,../static/images/invador3.png,1,80,2,40.0,left,70,2,1048.0,0.856290175907019,0,0,2,6860.0,1066.0,6.435272045028142,12.870544090056285,11.298894345635585,22.59778869127117
1,268,0,../static/images/invador1.png,3,80,8,10.0,right,70,1,1072.0,0.976041302222985,0,0,2,6940.0,1070.0,6.485981308411215,51.88785046728972,12.651380342245586,101.21104273796469
1,269,0,../static/images/invador3.png,1,80,2,40.0,left,70,2,895.0,0.0928767456427322,0,0,2,6940.0,1072.0,6.473880597014926,12.947761194029852,11.611838596249587,23.223677192499174
1,270,0,../static/images/invador3.png,1,80,2,40.0,right,74,2,970.0,0.467099015380127,0,0,2,7020.0,1076.0,6.5241635687732344,13.048327137546469,12.902085223121913,25.804170446243827
1,271,0,../static/images/invador2.png,4,20,8,2.5,left,74,1,1251.0,1.86918511932957,0,0,2,7100.0,1080.0,6.574074074074074,52.592592592592595,13.935723407100223,111.48578725680179
1,272,0,../static/images/invador4.png,2,20,2,10.0,right,70,1,1023.0,0.731549419327887,0,0,2,7100.0,1082.0,6.561922365988909,13.123844731977819,12.790649442802435,25.58129888560487
1,273,0,../static/images/invador3.png,1,80,2,40.0,right,74,2,860.0,-0.0817603135680523,0,0,2,7100.0,1084.0,6.549815498154982,13.099630996309964,11.739664198939826,23.47932839787965
1,274,0,../static/images/invador3.png,1,80,2,40.0,right,74,2,977.0,0.502026427222284,0,0,2,7180.0,1088.0,6.599264705882353,13.198529411764707,13.004488454472305,26.00897690894461
1,275,0,../static/images/invador2.png,4,20,8,2.5,left,74,1,994.0,0.586850141696094,0,0,2,7260.0,1092.0,6.648351648351649,53.18681318681319,14.017760350954218,112.14208280763374
1,276,0,../static/images/invador1.png,3,80,8,10.0,left,70,2,609.0,-1.33415750962254,1,0,2,7260.0,1094.0,6.6361974405850095,53.089579524680076,12.865945554783295,102.92756443826636
1,277,0,../static/images/invador4.png,2,20,2,10.0,right,70,1,1060.0,0.916165739065002,0,0,2,7340.0,1104.0,6.648550724637682,13.297101449275363,11.569067576763628,23.138135153527255
1,278,0,../static/images/invador3.png,1,80,2,40.0,left,70,2,518.0,-1.78821386357058,1,0,2,7340.0,1106.0,6.636528028933093,13.273056057866185,10.618457573510822,21.236915147021644
1,279,0,../static/images/invador3.png,1,80,2,40.0,right,74,2,1043.0,0.831342024591192,2,0,2,7420.0,1110.0,6.684684684684685,13.36936936936937,12.106271047012603,24.212542094025206
1,280,0,../static/images/invador3.png,1,80,2,40.0,left,70,2,874.0,-0.0119054898837385,0,0,2,7500.0,1114.0,6.732495511669659,13.464991023339318,13.298183341003062,26.596366682006124
1,281,0,../static/images/invador3.png,1,80,2,40.0,right,70,1,559.0,-1.5836390227808,2,0,2,7580.0,1118.0,6.779964221824687,13.559928443649374,14.253044243843178,28.506088487686355
1,282,0,../static/images/invador3.png,1,80,2,40.0,right,74,2,481.0,-1.97283018330769,1,0,2,7580.0,1120.0,6.767857142857143,13.535714285714286,13.081896582624967,26.163793165249935
1,283,0,../static/images/invador1.png,3,80,8,10.0,right,70,1,1107.0,1.15067836143377,0,0,2,7660.0,1124.0,6.814946619217082,54.519572953736656,14.079773298977058,112.63818639181646
1,284,0,../static/images/invador4.png,2,20,2,10.0,left,74,1,1090.0,1.06585464695996,0,0,2,7660.0,1126.0,6.802841918294849,13.605683836589698,12.92286300757019,25.84572601514038
1,285,0,../static/images/invador2.png,4,20,8,2.5,left,74,1,1134.0,1.28539837853923,0,0,2,7660.0,1128.0,6.790780141843972,54.326241134751776,11.861014006849045,94.88811205479236
1,286,0,../static/images/invador3.png,1,80,2,40.0,right,70,1,1012.0,0.676663486433069,2,0,2,7660.0,1130.0,6.778761061946903,13.557522123893806,10.886415277191826,21.772830554383653
1,287,0,../static/images/invador3.png,1,80,2,40.0,right,74,2,508.0,-1.83811016620223,1,0,2,7660.0,1132.0,6.76678445229682,13.53356890459364,9.991897616767053,19.983795233534106
1,288,0,../static/images/invador3.png,1,80,2,40.0,right,74,2,1027.0,0.751507940380548,0,0,2,7740.0,1136.0,6.813380281690141,13.626760563380282,11.604323370999618,23.208646741999235
1,289,0,../static/images/invador4.png,2,20,2,10.0,right,70,1,946.0,0.347347889064161,0,0,2,7820.0,1140.0,6.859649122807017,13.719298245614034,12.896064650296703,25.792129300593405
1,290,0,../static/images/invador3.png,1,80,2,40.0,left,70,2,818.0,-0.291324784620994,0,0,2,7820.0,1142.0,6.8476357267950965,13.695271453590193,11.836417623617622,23.672835247235245
1,291,0,../static/images/invador1.png,3,80,8,10.0,left,74,1,969.0,0.462109385116962,0,0,2,7900.0,1146.0,6.893542757417103,55.14834205933683,13.081999243568548,104.65599394854839
1,292,0,../static/images/invador3.png,1,80,2,40.0,left,70,2,950.0,0.367306410116822,0,0,2,7900.0,1148.0,6.881533101045296,13.763066202090592,12.007074297286858,24.014148594573715
1,293,0,../static/images/invador2.png,4,20,8,2.5,right,70,1,892.0,0.0779078548532363,0,0,2,7980.0,1152.0,6.927083333333333,55.416666666666664,13.218715163286046,105.74972130628836
1,294,0,../static/images/invador3.png,1,80,2,40.0,right,74,2,682.0,-0.969914500411471,1,0,2,7980.0,1154.0,6.915077989601387,13.830155979202774,12.132556509531819,24.265113019063637
1,295,0,../static/images/invador4.png,2,20,2,10.0,left,74,1,914.0,0.187679720642872,0,0,2,8060.0,1158.0,6.960276338514681,13.920552677029361,13.319241065299735,26.63848213059947
1,296,0,../static/images/invador2.png,4,20,8,2.5,left,74,1,1138.0,1.30535689959189,0,0,2,8060.0,1160.0,6.948275862068965,55.58620689655172,12.224822374389865,97.79857899511892
1,297,0,../static/images/invador1.png,3,80,8,10.0,left,74,1,882.0,0.0280115522215836,0,0,2,8060.0,1162.0,6.93631669535284,55.49053356282272,11.220330148895005,89.76264119116004
1,298,0,../static/images/invador3.png,1,80,2,40.0,right,74,2,908.0,0.157741939063881,0,0,2,8060.0,1164.0,6.9243986254295535,13.848797250859107,10.298375288784973,20.596750577569946
1,299,0,../static/images/invador3.png,1,80,2,40.0,left,70,2,936.0,0.297451586432508,0,0,2,8140.0,1168.0,6.969178082191781,13.938356164383562,11.849847767449639,23.699695534899277
1,300,0,../static/images/invador3.png,1,80,2,40.0,right,74,2,918.0,0.207638241695533,0,0,2,8220.0,1172.0,7.013651877133106,14.027303754266212,13.092758356742705,26.18551671348541
1,301,0,../static/images/invador1.png,3,80,8,10.0,right,70,1,879.0,0.0130426614320878,0,0,2,8300.0,1176.0,7.057823129251701,56.46258503401361,14.08847484815379,112.70779878523032
1,302,0,../static/images/invador3.png,1,80,2,40.0,right,74,2,959.0,0.41221308248531,0,0,2,8300.0,1178.0,7.045840407470289,14.091680814940577,12.9308495657041,25.8616991314082
1,303,0,../static/images/invador3.png,1,80,2,40.0,right,70,1,463.0,-2.06264352804466,2,0,2,8380.0,1182.0,7.089678510998308,14.179357021996616,13.958767003735742,27.917534007471485
1,304,0,../static/images/invador2.png,4,20,8,2.5,left,74,1,1019.0,0.711590898275226,0,0,2,8380.0,1184.0,7.077702702702703,56.62162162162162,12.811799587495754,102.49439669996603
1,305,0,../static/images/invador3.png,1,80,2,40.0,right,74,2,997.0,0.60181903248559,0,0,2,8380.0,1186.0,7.065767284991568,14.131534569983137,11.759076473317986,23.518152946635972
1,306,0,../static/images/invador4.png,2,20,2,10.0,right,70,1,898.0,0.107845636432228,0,0,2,8460.0,1190.0,7.109243697478991,14.218487394957982,13.020039952625623,26.040079905251247
1,307,0,../static/images/invador3.png,1,80,2,40.0,right,74,2,1129.0,1.26045022722341,0,0,2,8460.0,1192.0,7.097315436241611,14.194630872483222,11.950206092671674,23.90041218534335
1,308,0,../static/images/invador2.png,4,20,8,2.5,right,70,1,812.0,-0.321262566199985,2,0,2,8540.0,1196.0,7.1404682274247495,57.123745819397996,13.173157092045795,105.38525673636636
1,309,0,../static/images/invador1.png,3,80,8,10.0,left,74,1,1117.0,1.20057466406542,0,0,2,8540.0,1198.0,7.128547579298831,57.02838063439065,12.090741865146198,96.72593492116958
1,310,0,../static/images/invador3.png,1,80,2,40.0,left,70,2,953.0,0.382275300906318,0,0,2,8540.0,1200.0,7.116666666666666,14.233333333333333,11.097266800064876,22.194533600129752
1,311,0,../static/images/invador3.png,1,80,2,40.0,left,70,2,1082.0,1.02593760485464,0,0,2,8620.0,1204.0,7.159468438538206,14.318936877076412,12.489853138296278,24.979706276592555
1,312,0,../static/images/invador4.png,2,20,2,10.0,left,74,1,957.0,0.402233821958979,0,0,2,8700.0,1208.0,7.201986754966887,14.403973509933774,13.605477379199602,27.210954758399204
1,313,0,../static/images/invador3.png,1,80,2,40.0,right,74,2,965.0,0.442150864064301,0,0,2,8700.0,1210.0,7.190082644628099,14.380165289256198,12.487539152122968,24.975078304245937
1,314,0,../static/images/invador3.png,1,80,2,40.0,left,70,2,844.0,-0.161594397778697,0,0,2,8780.0,1214.0,7.2322899505766065,14.464579901153213,13.603623606117685,27.20724721223537
1,315,0,../static/images/invador2.png,4,20,8,2.5,right,70,1,1132.0,1.2754191180129,0,0,2,8860.0,1218.0,7.274220032840723,58.19376026272578,14.497737556246754,115.98190044997403
1,316,0,../static/images/invador3.png,1,80,2,40.0,right,74,2,520.0,-1.77823460304424,1,0,2,8860.0,1220.0,7.262295081967213,14.524590163934427,13.306483874473603,26.612967748947206
1,317,0,../static/images/invador3.png,1,80,2,40.0,left,70,2,868.0,-0.0418432714627302,0,0,2,8940.0,1224.0,7.303921568627451,14.607843137254902,14.259693940237531,28.519387880475062
1,318,0,../static/images/invador4.png,2,20,2,10.0,left,74,1,892.0,0.0779078548532363,0,0,2,9020.0,1228.0,7.3452768729641695,14.690553745928339,15.02332648986447,30.04665297972894
1,319,0,../static/images/invador3.png,1,80,2,40.0,right,74,2,680.0,-0.979893760937801,1,0,2,9020.0,1230.0,7.333333333333333,14.666666666666666,13.788886086725851,27.577772173451702
1,320,0,../static/images/invador3.png,1,80,2,40.0,right,74,2,485.0,-1.95287166225503,1,0,2,9100.0,1234.0,7.374392220421393,14.748784440842787,14.646154432545313,29.292308865090625
1,321,0,../static/images/invador1.png,3,80,8,10.0,right,70,1,894.0,0.0878871153795669,0,0,2,9180.0,1238.0,7.415185783521809,59.321486268174475,15.332926463333658,122.66341170666927
1,322,0,../static/images/invador3.png,1,80,2,40.0,left,70,2,873.0,-0.0168951201469038,0,0,2,9180.0,1240.0,7.403225806451613,14.806451612903226,14.073046773075848,28.146093546151697
1,323,0,../static/images/invador4.png,2,20,2,10.0,left,70,2,680.0,-0.979893760937801,1,0,2,9260.0,1244.0,7.443729903536977,14.887459807073954,14.873800317974862,29.747600635949723
1,324,0,../static/images/invador3.png,1,80,2,40.0,left,70,2,468.0,-2.03769537672884,1,0,2,9280.0,1248.0,7.435897435897436,14.871794871794872,12.815562273144149,25.631124546288298
1,325,0,../static/images/invador2.png,4,20,8,2.5,right,70,1,989.0,0.561901990380268,0,0,2,9360.0,1252.0,7.476038338658147,59.808306709265175,13.866408422643138,110.9312673811451
1,326,0,../static/images/invador1.png,3,80,8,10.0,right,70,1,489.0,-1.93291314120237,2,0,2,9360.0,1254.0,7.464114832535885,59.71291866028708,12.727029949115284,101.81623959292227
1,327,0,../static/images/invador3.png,1,80,2,40.0,left,70,2,933.0,0.282482695643012,0,0,2,9360.0,1256.0,7.452229299363057,14.904458598726114,11.681272207529727,23.362544415059453
1,328,0,../static/images/invador3.png,1,80,2,40.0,right,74,2,536.0,-1.6984005188336,1,0,2,9440.0,1260.0,7.492063492063492,14.984126984126984,12.957709652107738,25.915419304215476
1,329,0,../static/images/invador3.png,1,80,2,40.0,right,74,2,1046.0,0.846310915380688,0,0,2,9520.0,1264.0,7.531645569620253,15.063291139240507,13.98028506885098,27.96057013770196
1,330,0,../static/images/invador3.png,1,80,2,40.0,left,70,2,1066.0,0.946103520643994,0,0,2,9600.0,1268.0,7.570977917981073,15.141955835962145,14.799487362993418,29.598974725986835
1,331,0,../static/images/invador4.png,2,20,2,10.0,right,70,1,1116.0,1.19558503380226,0,0,2,9680.0,1272.0,7.610062893081761,15.220125786163521,15.45576404218992,30.91152808437984
1,332,0,../static/images/invador1.png,3,80,8,10.0,left,70,0,NaN,NaN,0,1,2,9680.0,1274.0,7.598116169544741,60.78492935635793,14.185791003400665,113.48632802720532
1,333,0,../static/images/invador3.png,1,80,2,40.0,left,74,1,849.0,-0.13664624646287,2,0,2,9680.0,1284.0,7.538940809968848,15.077881619937695,9.23993569112622,18.47987138225244
1,334,0,../static/images/invador2.png,4,20,8,2.5,right,74,2,1022.0,0.726559789064722,0,0,2,9680.0,1286.0,7.527216174183515,60.21772939346812,8.480706372158549,67.84565097726839
1,335,0,../static/images/invador3.png,1,80,2,40.0,left,70,2,775.0,-0.5058788859371,0,0,2,9700.0,1296.0,7.484567901234568,14.969135802469136,6.153028707352901,12.306057414705801
1,336,0,../static/images/invador4.png,2,20,2,10.0,right,70,1,946.0,0.347347889064161,0,0,2,9780.0,1300.0,7.523076923076923,15.046153846153846,8.528941187923161,17.057882375846322
1,337,0,../static/images/invador3.png,1,80,2,40.0,left,70,2,941.0,0.322399737748335,0,0,2,9780.0,1302.0,7.511520737327189,15.023041474654377,7.8281330409745795,15.656266081949159
1,338,0,../static/images/invador3.png,1,80,2,40.0,left,70,2,887.0,0.05295970353741,0,0,2,9860.0,1306.0,7.549770290964778,15.099540581929556,9.870895327013693,19.741790654027387
1,339,0,../static/images/invador1.png,3,80,8,10.0,right,70,1,855.0,-0.106708464883879,2,0,2,9940.0,1310.0,7.587786259541985,60.70229007633588,11.507386409931122,92.05909127944898
1,340,0,../static/images/invador3.png,1,80,2,40.0,right,74,2,1141.0,1.32032579038139,0,0,2,9940.0,1312.0,7.576219512195122,15.152439024390244,10.561844640035432,21.123689280070863
1,341,0,../static/images/invador3.png,1,80,2,40.0,left,70,2,897.0,0.102856006169063,0,0,2,10020.0,1316.0,7.613981762917933,15.227963525835866,12.060917477758142,24.121834955516285
1,342,0,../static/images/invador2.png,4,20,8,2.5,right,74,2,503.0,-1.86305831751805,1,0,2,10100.0,1320.0,7.651515151515151,61.21212121212121,13.261849837016499,106.09479869613199
1,343,0,../static/images/invador3.png,1,80,2,40.0,right,74,2,1004.0,0.636746444327747,0,0,2,10120.0,1330.0,7.609022556390977,15.218045112781954,9.11456338531726,18.22912677063452
1,344,0,../static/images/invador4.png,2,20,2,10.0,right,70,1,929.0,0.262524174590351,0,0,2,10200.0,1334.0,7.646176911544228,15.292353823088456,10.901476223136074,21.802952446272148
1,345,0,../static/images/invador3.png,1,80,2,40.0,left,70,2,1032.0,0.776456091696374,0,0,2,10200.0,1336.0,7.634730538922156,15.269461077844312,10.005721031183537,20.011442062367074
1,346,0,../static/images/invador2.png,4,20,8,2.5,left,74,1,1117.0,1.20057466406542,0,0,2,10280.0,1340.0,7.6716417910447765,61.37313432835821,11.615397539826139,92.92318031860911
1,347,0,../static/images/invador3.png,1,80,2,40.0,left,70,2,923.0,0.23258639301136,0,0,2,10280.0,1342.0,7.660208643815201,15.320417287630402,10.660980684720725,21.32196136944145
1,348,0,../static/images/invador1.png,3,80,8,10.0,left,74,1,1059.0,0.911176108801837,0,0,2,10360.0,1346.0,7.696879643387816,61.57503714710253,12.140337023650465,97.12269618920372
1,349,0,../static/images/invador3.png,1,80,2,40.0,right,74,2,849.0,-0.13664624646287,0,0,2,10360.0,1348.0,7.685459940652819,15.370919881305637,11.142786811330678,22.285573622661357
1,350,0,../static/images/invador2.png,4,20,8,2.5,left,74,1,976.0,0.497036796959119,0,0,2,10440.0,1352.0,7.72189349112426,61.77514792899408,12.526319981765972,100.21055985412778
1,351,0,../static/images/invador3.png,1,80,2,40.0,right,74,2,1082.0,1.02593760485464,0,0,2,10440.0,1354.0,7.710487444608567,15.420974889217135,11.497054226371075,22.99410845274215
1,352,0,../static/images/invador1.png,3,80,8,10.0,right,74,2,644.0,-1.15952045041175,1,0,2,10520.0,1358.0,7.746686303387334,61.973490427098675,12.810129541813195,102.48103633450556
1,353,0,../static/images/invador3.png,1,80,2,40.0,right,74,2,844.0,-0.161594397778697,0,0,2,10600.0,1368.0,7.748538011695906,15.497076023391813,11.534494036100886,23.068988072201773
1,354,0,../static/images/invador3.png,1,80,2,40.0,right,74,2,803.0,-0.366169238568473,0,0,2,10680.0,1372.0,7.784256559766764,15.568513119533527,12.840123200491789,25.680246400983577
1,355,0,../static/images/invador4.png,2,20,2,10.0,left,70,2,441.0,-2.1724153938343,1,0,2,10760.0,1376.0,7.819767441860465,15.63953488372093,13.886084592928489,27.772169185856978
1,356,0,../static/images/invador3.png,1,80,2,40.0,left,70,2,963.0,0.432171603537971,0,0,2,10780.0,1380.0,7.811594202898551,15.623188405797102,12.024286661908018,24.048573323816036
1,357,0,../static/images/invador3.png,1,80,2,40.0,left,70,2,523.0,-1.76326571225475,1,0,2,10860.0,1384.0,7.8468208092485545,15.693641618497109,13.232504276885294,26.465008553770588
1,358,0,../static/images/invador3.png,1,80,2,40.0,left,70,2,833.0,-0.216480330673515,0,0,2,10940.0,1388.0,7.881844380403458,15.763688760806916,14.20042764547651,28.40085529095302
1,359,0,../static/images/invador3.png,1,80,2,40.0,left,70,2,812.0,-0.321262566199985,0,0,2,11020.0,1392.0,7.916666666666667,15.833333333333334,14.975847268441196,29.951694536882393
1,360,0,../static/images/invador2.png,4,20,8,2.5,right,70,1,1132.0,1.2754191180129,0,0,2,11100.0,1396.0,7.951289398280802,63.61031518624642,15.59704891641239,124.77639133129912
1,361,0,../static/images/invador1.png,3,80,8,10.0,right,74,2,1137.0,1.30036726932873,0,0,2,11100.0,1398.0,7.939914163090129,63.51931330472103,14.315466747167891,114.52373397734313
1,362,0,../static/images/invador3.png,1,80,2,40.0,left,70,2,462.0,-2.06763315830783,1,0,2,11180.0,1408.0,7.940340909090909,15.880681818181818,12.466929627807259,24.933859255614518
1,363,0,../static/images/invador4.png,2,20,2,10.0,left,70,2,481.0,-1.97283018330769,1,0,2,11260.0,1412.0,7.974504249291785,15.94900849858357,13.587112970985867,27.174225941971734
1,364,0,../static/images/invador3.png,1,80,2,40.0,left,74,1,936.0,0.297451586432508,0,0,2,11280.0,1416.0,7.966101694915254,15.932203389830509,11.784775487897099,23.569550975794197
1,365,0,../static/images/invador3.png,1,80,2,40.0,right,74,2,1022.0,0.726559789064722,0,0,2,11280.0,1418.0,7.9548660084626235,15.909732016925247,10.81644114370293,21.63288228740586
1,366,0,../static/images/invador3.png,1,80,2,40.0,right,74,2,955.0,0.392254561432648,0,0,2,11360.0,1422.0,7.988748241912799,15.977496483825599,12.264879001250769,24.529758002501538
1,367,0,../static/images/invador2.png,4,20,8,2.5,right,70,1,988.0,0.556912360117102,0,0,2,11440.0,1426.0,8.022440392706873,64.17952314165498,13.425246829772387,107.4019746381791
1,368,0,../static/images/invador1.png,3,80,8,10.0,right,70,1,1075.0,0.991010193012481,0,0,2,11440.0,1428.0,8.011204481792717,64.08963585434174,12.322117831014323,98.57694264811458
1,369,0,../static/images/invador4.png,2,20,2,10.0,right,70,1,1136.0,1.29537763906556,0,0,2,11440.0,1430.0,8.0,16.0,11.309631008398775,22.61926201679755
1,370,0,../static/images/invador3.png,1,80,2,40.0,right,74,2,939.0,0.312420477222004,0,0,2,11440.0,1432.0,7.988826815642458,15.977653631284916,10.380338453199652,20.760676906399304
1,371,0,../static/images/invador1.png,3,80,8,10.0,left,74,1,465.0,-2.05266426751833,2,0,2,11520.0,1436.0,8.022284122562674,64.17827298050139,11.915509831317284,95.32407865053827
1,372,0,../static/images/invador3.png,1,80,2,40.0,right,74,2,841.0,-0.176563288568193,0,0,2,11520.0,1438.0,8.011126564673157,16.022253129346314,10.936433275289765,21.87286655057953
1,373,0,../static/images/invador3.png,1,80,2,40.0,left,74,1,497.0,-1.89299609909705,2,0,2,11600.0,1442.0,8.044382801664355,16.08876560332871,12.361006707692258,24.722013415384517
1,374,0,../static/images/invador2.png,4,20,8,2.5,right,70,1,1047.0,0.851300545643853,0,0,2,11600.0,1444.0,8.033240997229917,64.26592797783934,11.345324454248768,90.76259563399014
1,375,0,../static/images/invador3.png,1,80,2,40.0,right,70,1,593.0,-1.41399159383318,2,0,2,11600.0,1446.0,8.022130013831259,16.044260027662517,10.413099031171535,20.82619806234307
1,376,0,../static/images/invador3.png,1,80,2,40.0,right,74,2,873.0,-0.0168951201469038,0,0,2,11600.0,1448.0,8.011049723756907,16.022099447513813,9.557472937001647,19.114945874003293
1,377,0,../static/images/invador4.png,2,20,2,10.0,left,70,2,566.0,-1.54871161093864,1,0,2,11680.0,1452.0,8.044077134986226,16.088154269972453,11.256298483574348,22.512596967148696
1,378,0,../static/images/invador3.png,1,80,2,40.0,right,74,2,822.0,-0.271366263568333,0,0,2,11700.0,1456.0,8.035714285714286,16.071428571428573,9.917520961684117,19.835041923368234
1,379,0,../static/images/invador4.png,2,20,2,10.0,left,74,1,604.0,-1.35910566093836,2,0,2,11780.0,1460.0,8.068493150684931,16.136986301369863,11.544738986829076,23.089477973658152
1,380,0,../static/images/invador3.png,1,80,2,40.0,right,74,2,550.0,-1.62854569514929,1,0,2,11780.0,1462.0,8.057455540355678,16.114911080711355,10.596128021165372,21.192256042330744
1,381,0,../static/images/invador3.png,1,80,2,40.0,right,74,2,896.0,0.0978663759058974,0,0,2,11860.0,1466.0,8.090040927694407,16.180081855388813,12.088382468616278,24.176764937232555
1,382,0,../static/images/invador2.png,4,20,8,2.5,right,70,1,1086.0,1.0458961259073,0,0,2,11940.0,1470.0,8.122448979591837,64.9795918367347,13.28385250122218,106.27082000977744
1,383,0,../static/images/invador3.png,1,80,2,40.0,right,74,2,503.0,-1.86305831751805,1,0,2,11940.0,1472.0,8.111413043478262,16.222826086956523,12.192341626589608,24.384683253179215
1,384,0,../static/images/invador1.png,3,80,8,10.0,right,74,2,517.0,-1.79320349383374,1,0,2,12020.0,1476.0,8.143631436314363,65.1490514905149,13.367135923955049,106.93708739164039
1,385,0,../static/images/invador3.png,1,80,2,40.0,right,74,2,787.0,-0.446003322779117,0,0,2,12100.0,1486.0,8.142664872139973,16.285329744279945,11.87951478870647,23.75902957741294
1,386,0,../static/images/invador2.png,4,20,8,2.5,left,74,1,994.0,0.586850141696094,0,0,2,12180.0,1490.0,8.174496644295303,65.39597315436242,13.116525104384039,104.93220083507231
1,387,0,../static/images/invador1.png,3,80,8,10.0,left,74,1,715.0,-0.805256701727017,2,0,2,12180.0,1492.0,8.163538873994638,65.3083109919571,12.038763228639851,96.31010582911881
1,388,0,../static/images/invador3.png,1,80,2,40.0,left,70,2,866.0,-0.0518225319890607,0,0,2,12180.0,1494.0,8.152610441767068,16.305220883534137,11.049559157006405,22.09911831401281
1,389,0,../static/images/invador3.png,1,80,2,40.0,right,74,2,870.0,-0.0318640109363996,0,0,2,12260.0,1498.0,8.184245660881174,16.36849132176235,12.451633746355387,24.903267492710775
1,390,0,../static/images/invador4.png,2,20,2,10.0,left,74,1,907.0,0.152752308800715,0,0,2,12340.0,1502.0,8.215712383488682,16.431424766977365,13.574859184153977,27.149718368307955
1,391,0,../static/images/invador3.png,1,80,2,40.0,right,74,2,853.0,-0.116687725410209,0,0,2,12340.0,1504.0,8.204787234042554,16.409574468085108,12.459436800493313,24.918873600986625
1,392,0,../static/images/invador1.png,3,80,8,10.0,right,70,1,1007.0,0.651715335117243,0,0,2,12420.0,1508.0,8.23607427055703,65.88859416445624,13.581110341522361,108.64888273217889
1,393,0,../static/images/invador4.png,2,20,2,10.0,left,74,1,969.0,0.462109385116962,0,0,2,12420.0,1510.0,8.225165562913908,16.450331125827816,12.465174311218451,24.930348622436902
1,394,0,../static/images/invador3.png,1,80,2,40.0,right,74,2,611.0,-1.3241782490962,1,0,2,12420.0,1512.0,8.214285714285714,16.428571428571427,11.44093278838961,22.88186557677922
1,395,0,../static/images/invador3.png,1,80,2,40.0,right,74,2,513.0,-1.8131620148864,1,0,2,12500.0,1516.0,8.24538258575198,16.49076517150396,12.7651697178313,25.5303394356626
1,396,0,../static/images/invador3.png,1,80,2,40.0,right,74,2,1007.0,0.651715335117243,0,0,2,12580.0,1520.0,8.276315789473685,16.55263157894737,13.826038102523905,27.65207620504781
1,397,0,../static/images/invador3.png,1,80,2,40.0,right,70,1,438.0,-2.1873842846238,2,0,2,12660.0,1524.0,8.307086614173228,16.614173228346456,14.675917534684723,29.351835069369447
1,398,0,../static/images/invador2.png,4,20,8,2.5,left,74,1,976.0,0.497036796959119,0,0,2,12660.0,1526.0,8.296199213630405,66.36959370904324,13.470023116416725,107.7601849313338
1,399,0,../static/images/invador3.png,1,80,2,40.0,right,74,2,921.0,0.222607132485029,0,0,2,12660.0,1528.0,8.285340314136125,16.57068062827225,12.363214928673878,24.726429857347757
1,400,0,../static/images/invador3.png,1,80,2,40.0,left,70,2,888.0,0.0579493338005753,0,0,2,12740.0,1532.0,8.315926892950392,16.631853785900784,13.504025388324282,27.008050776648563
1,401,0,../static/images/invador2.png,4,20,8,2.5,right,70,1,1046.0,0.846310915380688,0,0,2,12820.0,1536.0,8.346354166666666,66.77083333333333,14.417947755736282,115.34358204589026
1,402,0,../static/images/invador3.png,1,80,2,40.0,right,74,2,943.0,0.332378998274665,0,0,2,12820.0,1538.0,8.335500650195058,16.671001300390117,13.233250262006768,26.466500524013536
1,403,0,../static/images/invador3.png,1,80,2,40.0,left,70,2,944.0,0.33736862853783,0,0,2,12900.0,1542.0,8.365758754863814,16.731517509727627,14.201025266652321,28.402050533304642
1,404,0,../static/images/invador4.png,2,20,2,10.0,right,70,1,434.0,-2.20734280567646,2,0,2,12980.0,1546.0,8.395860284605433,16.791720569210867,14.97632603277509,29.95265206555018
1,405,0,../static/images/invador1.png,3,80,8,10.0,left,70,2,443.0,-2.16243613330797,1,0,2,12980.0,1548.0,8.38501291989664,67.08010335917312,13.745747574807952,109.96598059846362
1,406,0,../static/images/invador1.png,3,80,8,10.0,left,74,1,920.0,0.217617502221864,0,0,2,13060.0,1558.0,8.382541720154043,67.06033376123234,12.114034321894232,96.91227457515386
1,407,0,../static/images/invador3.png,1,80,2,40.0,right,74,2,1059.0,0.911176108801837,0,0,2,13060.0,1560.0,8.371794871794872,16.743589743589745,11.118645356471495,22.23729071294299
1,408,0,../static/images/invador3.png,1,80,2,40.0,right,74,2,1226.0,1.74444436275044,0,0,2,13140.0,1564.0,8.40153452685422,16.80306905370844,12.506979857917147,25.013959715834293
1,409,0,../static/images/invador4.png,2,20,2,10.0,left,74,1,961.0,0.42219234301164,0,0,2,13220.0,1568.0,8.431122448979592,16.862244897959183,13.61919788115459,27.23839576230918
1,410,0,../static/images/invador2.png,4,20,8,2.5,left,74,1,1126.0,1.24548133643391,0,0,2,13220.0,1570.0,8.420382165605096,67.36305732484077,12.500132264483115,100.00105811586492
1,411,0,../static/images/invador3.png,1,80,2,40.0,left,70,2,876.0,-0.001926229357408,0,0,2,13220.0,1572.0,8.40966921119593,16.81933842239186,11.473018307912648,22.946036615825296
1,412,0,../static/images/invador3.png,1,80,2,40.0,left,74,1,650.0,-1.12958266883276,2,0,2,13300.0,1576.0,8.439086294416244,16.878172588832488,12.790873964942715,25.58174792988543
1,413,0,../static/images/invador4.png,2,20,2,10.0,left,74,1,915.0,0.192669350906038,0,0,2,13300.0,1578.0,8.428390367553865,16.85678073510773,11.739870272489407,23.479740544978814
1,414,0,../static/images/invador3.png,1,80,2,40.0,right,74,2,971.0,0.472088645643293,0,0,2,13300.0,1580.0,8.417721518987342,16.835443037974684,10.775225711130503,21.550451422261006
1,415,0,../static/images/invador1.png,3,80,8,10.0,left,70,2,532.0,-1.71835903988626,1,0,2,13380.0,1584.0,8.446969696969697,67.57575757575758,12.23186062787256,97.85488502298048
1,416,0,../static/images/invador3.png,1,80,2,40.0,left,70,2,872.0,-0.0218847504100691,0,0,2,13460.0,1594.0,8.444165621079046,16.888331242158092,11.176302851416397,22.352605702832793
1,417,0,../static/images/invador2.png,4,20,8,2.5,right,70,1,1202.0,1.62469323643447,0,0,2,13540.0,1598.0,8.473091364205256,67.78473091364205,12.553170242860881,100.42536194288705
1,418,0,../static/images/invador3.png,1,80,2,40.0,left,70,2,852.0,-0.121677355673375,0,0,2,13540.0,1600.0,8.4625,16.925,11.521698248577897,23.043396497155793
1,419,0,../static/images/invador3.png,1,80,2,40.0,left,70,2,963.0,0.432171603537971,0,0,2,13620.0,1604.0,8.491271820448878,16.982543640897756,12.829872280782046,25.659744561564093
1,420,0,../static/images/invador3.png,1,80,2,40.0,right,74,2,824.0,-0.261387003042002,0,0,2,13700.0,1608.0,8.519900497512438,17.039800995024876,13.877872409449607,27.755744818899213
1,421,0,../static/images/invador2.png,4,20,8,2.5,right,70,1,968.0,0.457119754853797,0,0,2,13780.0,1612.0,8.548387096774194,68.38709677419355,14.717442866169865,117.73954292935892
1,422,0,../static/images/invador4.png,2,20,2,10.0,left,74,1,558.0,-1.58862865304396,2,0,2,13780.0,1614.0,8.537794299876085,17.07558859975217,13.508136384203883,27.016272768407767
1,423,0,../static/images/invador3.png,1,80,2,40.0,left,70,2,900.0,0.117824896958559,0,0,2,13780.0,1616.0,8.527227722772277,17.054455445544555,12.39819649605608,24.79639299211216
1,424,0,../static/images/invador3.png,1,80,2,40.0,right,74,2,979.0,0.512005687748615,0,0,2,13860.0,1620.0,8.555555555555555,17.11111111111111,13.532049707883484,27.064099415766968
1,425,0,../static/images/invador3.png,1,80,2,40.0,right,74,2,892.0,0.0779078548532363,0,0,2,13940.0,1624.0,8.583743842364532,17.167487684729064,14.440398507532954,28.88079701506591
1,426,0,../static/images/invador1.png,3,80,8,10.0,left,74,1,887.0,0.05295970353741,0,0,2,14020.0,1628.0,8.611793611793612,68.8943488943489,15.168091945464697,121.34473556371758
1,427,0,../static/images/invador3.png,1,80,2,40.0,left,70,2,847.0,-0.146625506989201,0,0,2,14020.0,1630.0,8.60122699386503,17.20245398773006,13.921756418600168,27.843512837200336
1,428,0,../static/images/invador1.png,3,80,8,10.0,left,74,1,885.0,0.0429804430110794,0,0,2,14100.0,1634.0,8.629130966952264,69.03304773561811,14.752599080942565,118.02079264754052
1,429,0,../static/images/invador2.png,4,20,8,2.5,left,74,1,1092.0,1.07583390748629,0,0,2,14100.0,1636.0,8.618581907090464,68.94865525672371,13.540403874434379,108.32323099547503
1,430,0,../static/images/invador3.png,1,80,2,40.0,left,70,2,992.0,0.576870881169763,0,0,2,14100.0,1638.0,8.608058608058608,17.216117216117215,12.42781262317633,24.85562524635266
1,431,0,../static/images/invador3.png,1,80,2,40.0,right,74,2,466.0,-2.04767463725517,1,0,2,14180.0,1642.0,8.635809987819732,17.271619975639464,13.555775683379544,27.111551366759088
1,432,0,../static/images/invador4.png,2,20,2,10.0,left,74,1,651.0,-1.12459303856959,2,0,2,14260.0,1646.0,8.663426488456865,17.32685297691373,14.459405783904845,28.91881156780969
1,433,0,../static/images/invador3.png,1,80,2,40.0,left,70,2,560.0,-1.57864939251763,1,0,2,14260.0,1648.0,8.652912621359222,17.305825242718445,13.271301756672898,26.542603513345796
3,0,0,../static/images/invador4.png,1,80,2,40.0,left,70,2,833.0,0.00725451228568999,0,0,1,0.0,2.0,0.0,0.0,8.203038980679663,16.406077961359326
3,1,0,../static/images/invador4.png,1,80,2,40.0,right,74,2,802.0,-0.225928487821368,0,0,1,80.0,6.0,13.333333333333334,26.666666666666668,10.957448094792715,21.91489618958543
3,2,0,../static/images/invador4.png,1,80,2,40.0,right,74,2,804.0,-0.210884423298332,0,0,1,160.0,10.0,16.0,32.0,13.5937808580023,27.1875617160046
3,3,0,../static/images/invador3.png,3,80,8,10.0,right,74,2,677.0,-1.16618252051112,1,0,1,240.0,14.0,17.142857142857142,137.14285714285714,16.11709898193696,128.93679185549567
3,4,0,../static/images/invador1.png,2,20,2,10.0,left,70,2,910.0,0.586450996422576,0,0,1,320.0,24.0,13.333333333333334,26.666666666666668,18.436953618328385,36.87390723665677
3,5,0,../static/images/invador2.png,4,20,8,2.5,right,74,2,950.0,0.887332286883296,0,0,1,340.0,28.0,12.142857142857142,97.14285714285714,18.423110509268554,147.38488407414843
3,6,0,../static/images/invador4.png,1,80,2,40.0,left,74,1,661.0,-1.28653503669541,2,0,1,360.0,38.0,9.473684210526315,18.94736842105263,18.30093278592367,36.60186557184734
3,7,0,../static/images/invador4.png,1,80,2,40.0,right,74,2,815.0,-0.128142068421634,0,0,1,360.0,40.0,9.0,18.0,18.26317092770442,36.52634185540884
3,8,0,../static/images/invador1.png,2,20,2,10.0,right,74,2,983.0,1.13555935151339,0,0,1,440.0,44.0,10.0,20.0,20.586321060054114,41.17264212010823
3,9,0,../static/images/invador4.png,1,80,2,40.0,right,74,2,989.0,1.1806915450825,0,0,1,460.0,48.0,9.583333333333334,19.166666666666668,20.480338601407706,40.96067720281541
3,10,0,../static/images/invador3.png,3,80,8,10.0,right,70,1,1261.0,3.22668432021539,0,0,1,540.0,52.0,10.384615384615385,83.07692307692308,22.708442915432656,181.66754332346125
3,11,0,../static/images/invador4.png,1,80,2,40.0,left,70,2,1082.0,1.88024054540367,0,0,1,540.0,54.0,10.0,20.0,22.661586669809367,45.323173339618734
3,12,0,../static/images/invador4.png,1,80,2,40.0,right,74,2,823.0,-0.06796581032949,0,0,1,620.0,58.0,10.689655172413794,21.379310344827587,24.796184971596535,49.59236994319307
3,13,0,../static/images/invador2.png,4,20,8,2.5,left,70,2,859.0,0.202827351085158,0,0,1,700.0,62.0,11.290322580645162,90.3225806451613,26.83927704911646,214.7142163929317
3,14,0,../static/images/invador2.png,4,20,8,2.5,right,70,1,1312.0,3.61030796555281,0,0,1,720.0,72.0,10.0,80.0,26.306552831693512,210.4524226535481
3,15,0,../static/images/invador4.png,1,80,2,40.0,right,74,2,841.0,0.067430770377834,0,0,1,720.0,74.0,9.72972972972973,19.45945945945946,26.25227230239548,52.50454460479096
3,16,0,../static/images/invador3.png,3,80,8,10.0,left,74,1,1016.0,1.38378641614348,0,0,1,800.0,78.0,10.256410256410257,82.05128205128206,28.232944647953083,225.86355718362466
3,17,0,../static/images/invador1.png,2,20,2,10.0,right,74,2,918.0,0.64662725451472,0,0,1,800.0,80.0,10.0,20.0,28.174689231938004,56.34937846387601
3,18,0,../static/images/invador4.png,1,80,2,40.0,left,70,2,837.0,0.037342641331762,0,0,1,820.0,84.0,9.761904761904763,19.523809523809526,27.743407667048775,55.48681533409755
3,19,0,../static/images/invador4.png,1,80,2,40.0,right,74,2,847.0,0.112562963946942,0,0,1,900.0,88.0,10.227272727272727,20.454545454545453,29.6601578371898,59.3203156743796
3,20,0,../static/images/invador4.png,1,80,2,40.0,right,74,2,769.0,-0.474155552451462,0,0,1,980.0,92.0,10.652173913043478,21.304347826086957,31.494740523740887,62.989481047481775
3,21,0,../static/images/invador3.png,3,80,8,10.0,right,74,2,703.0,-0.97060968171165,1,0,1,1060.0,96.0,11.041666666666666,88.33333333333333,33.25067809256102,266.00542474048814
3,22,0,../static/images/invador1.png,2,20,2,10.0,right,74,2,1052.0,1.65457957755813,0,0,1,1140.0,106.0,10.754716981132075,21.50943396226415,34.734744748573064,69.46948949714613
3,23,0,../static/images/invador2.png,4,20,8,2.5,left,74,1,892.0,0.451054415715252,0,0,1,1160.0,110.0,10.545454545454545,84.36363636363636,34.022245911652746,272.17796729322197
3,24,0,../static/images/invador4.png,1,80,2,40.0,left,70,2,645.0,-1.40688755287969,1,0,1,1160.0,112.0,10.357142857142858,20.714285714285715,33.95204494203854,67.90408988407708
3,25,0,../static/images/invador4.png,1,80,2,40.0,right,74,2,813.0,-0.14318613294467,0,0,1,1240.0,116.0,10.689655172413794,21.379310344827587,35.60264248083738,71.20528496167476
3,26,0,../static/images/invador4.png,1,80,2,40.0,right,74,2,702.0,-0.978131713973168,0,0,1,1320.0,120.0,11.0,22.0,37.18248199999673,74.36496399999346
3,27,0,../static/images/invador4.png,1,80,2,40.0,left,70,2,735.0,-0.729904649343074,0,0,1,1400.0,124.0,11.290322580645162,22.580645161290324,38.69459676306244,77.38919352612488
3,28,0,../static/images/invador4.png,1,80,2,40.0,left,70,2,746.0,-0.647162294466376,0,0,1,1480.0,128.0,11.5625,23.125,40.14189000326315,80.2837800065263
3,29,0,../static/images/invador2.png,4,20,8,2.5,right,74,2,507.0,-2.44492800496918,1,0,1,1560.0,132.0,11.818181818181818,94.54545454545455,41.52714049766602,332.21712398132814
3,30,0,../static/images/invador4.png,1,80,2,40.0,right,74,2,858.0,0.19530531882364,0,0,1,1580.0,142.0,11.126760563380282,22.253521126760564,40.27793202155487,80.55586404310974
3,31,0,../static/images/invador1.png,2,20,2,10.0,right,74,2,868.0,0.27052564143882,0,0,1,1660.0,146.0,11.36986301369863,22.73972602739726,41.65735064987541,83.31470129975082
3,32,0,../static/images/invador4.png,1,80,2,40.0,left,70,2,541.0,-2.18917890807757,0,0,1,1680.0,150.0,11.2,22.4,40.64809268614985,81.2961853722997
3,33,0,../static/images/invador3.png,3,80,8,10.0,left,74,1,1080.0,1.86519648088064,0,0,1,1760.0,154.0,11.428571428571429,91.42857142857143,42.01164322127414,336.09314577019313
3,34,0,../static/images/invador4.png,1,80,2,40.0,left,70,2,768.0,-0.48167758471298,0,0,1,1760.0,156.0,11.282051282051283,22.564102564102566,41.92495705432096,83.84991410864193
3,35,0,../static/images/invador4.png,1,80,2,40.0,right,74,2,784.0,-0.361325068528692,0,0,1,1840.0,160.0,11.5,23.0,43.23377080963291,86.46754161926582
3,36,0,../static/images/invador4.png,1,80,2,40.0,left,70,2,904.0,0.541318802853468,0,0,1,1920.0,164.0,11.707317073170731,23.414634146341463,44.48647817484918,88.97295634969836
3,37,0,../static/images/invador2.png,4,20,8,2.5,left,74,1,975.0,1.07538309342125,0,0,1,2000.0,168.0,11.904761904761905,95.23809523809524,45.685484325646456,365.48387460517165
3,38,0,../static/images/invador3.png,3,80,8,10.0,right,70,1,1101.0,2.02315915837251,0,0,1,2000.0,170.0,11.764705882352942,94.11764705882354,45.591217612470516,364.7297408997641
3,39,0,../static/images/invador4.png,1,80,2,40.0,left,70,2,588.0,-1.83564339178622,1,0,1,2000.0,172.0,11.627906976744185,23.25581395348837,45.49714540775484,90.99429081550969
3,40,0,../static/images/invador1.png,2,20,2,10.0,right,74,2,955.0,0.924942448190886,0,0,1,2080.0,176.0,11.818181818181818,23.636363636363637,46.65282615048991,93.30565230097982
3,41,0,../static/images/invador4.png,1,80,2,40.0,right,74,2,814.0,-0.135664100683152,0,0,1,2100.0,180.0,11.666666666666666,23.333333333333332,45.429421524557206,90.85884304911441
3,42,0,../static/images/invador1.png,2,20,2,10.0,right,70,1,528.0,-2.2869653274773,2,0,1,2180.0,184.0,11.847826086956522,23.695652173913043,46.5880054631015,93.176010926203
3,43,0,../static/images/invador4.png,1,80,2,40.0,right,74,2,796.0,-0.271060681390476,0,0,1,2180.0,186.0,11.720430107526882,23.440860215053764,46.49187650193902,92.98375300387804
3,44,0,../static/images/invador2.png,4,20,8,2.5,left,74,1,981.0,1.12051528699035,0,0,1,2260.0,190.0,11.894736842105264,95.15789473684211,47.604914988979516,380.8393199118361
3,45,0,../static/images/invador4.png,1,80,2,40.0,right,74,2,784.0,-0.361325068528692,0,0,1,2260.0,192.0,11.770833333333334,23.541666666666668,47.5066877526205,95.013375505241
3,46,0,../static/images/invador4.png,1,80,2,40.0,right,74,2,814.0,-0.135664100683152,0,0,1,2340.0,196.0,11.938775510204081,23.877551020408163,48.57622318533173,97.15244637066345
3,47,0,../static/images/invador4.png,1,80,2,40.0,left,70,2,799.0,-0.248494584605922,0,0,1,2420.0,200.0,12.1,24.2,49.59990964070353,99.19981928140706
3,48,0,../static/images/invador3.png,3,80,8,10.0,left,74,1,996.0,1.23334577091312,0,0,1,2500.0,204.0,12.254901960784315,98.03921568627452,50.57971257837264,404.63770062698114
3,49,0,../static/images/invador4.png,1,80,2,40.0,left,70,2,787.0,-0.338758971744138,0,0,1,2500.0,206.0,12.135922330097088,24.271844660194176,50.47534719123652,100.95069438247305
3,50,0,../static/images/invador4.png,1,80,2,40.0,right,74,2,843.0,0.08247483490087,0,0,1,2580.0,210.0,12.285714285714286,24.571428571428573,51.41762176360901,102.83524352721803
3,51,0,../static/images/invador4.png,1,80,2,40.0,left,70,2,811.0,-0.158230197467706,0,0,1,2660.0,214.0,12.429906542056075,24.85981308411215,52.31950279295813,104.63900558591627
3,52,0,../static/images/invador2.png,4,20,8,2.5,left,74,1,1001.0,1.27095593222071,0,0,1,2740.0,218.0,12.568807339449542,100.55045871559633,53.18272187468699,425.4617749974959
3,53,0,../static/images/invador3.png,3,80,8,10.0,right,74,2,676.0,-1.17370455277264,1,0,1,2740.0,220.0,12.454545454545455,99.63636363636364,53.072985478917566,424.58388383134053
3,54,0,../static/images/invador4.png,1,80,2,40.0,right,74,2,847.0,0.112562963946942,0,0,1,2820.0,230.0,12.26086956521739,24.52173913043478,53.59010610748641,107.18021221497283
3,55,0,../static/images/invador1.png,2,20,2,10.0,left,74,1,955.0,0.924942448190886,0,0,1,2900.0,234.0,12.393162393162394,24.786324786324787,54.39885680902562,108.79771361805123
3,56,0,../static/images/invador4.png,1,80,2,40.0,right,74,2,885.0,0.398400189884626,0,0,1,2900.0,236.0,12.288135593220339,24.576271186440678,54.286611059470616,108.57322211894123
3,57,0,../static/images/invador2.png,4,20,8,2.5,right,70,1,887.0,0.413444254407662,0,0,1,2980.0,240.0,12.416666666666666,99.33333333333333,55.065503900499884,440.5240312039991
3,58,0,../static/images/invador4.png,1,80,2,40.0,left,74,1,630.0,-1.51971803680246,2,0,1,2980.0,242.0,12.314049586776859,24.628099173553718,54.95188260177233,109.90376520354467
3,59,0,../static/images/invador4.png,1,80,2,40.0,right,74,2,775.0,-0.429023358882354,1,0,1,2980.0,244.0,12.21311475409836,24.42622950819672,54.83849574745389,109.67699149490778
3,60,0,../static/images/invador1.png,2,20,2,10.0,left,74,1,631.0,-1.51219600454095,2,0,1,3060.0,248.0,12.338709677419354,24.677419354838708,55.593730327354606,111.18746065470921
3,61,0,../static/images/invador3.png,3,80,8,10.0,right,70,1,1038.0,1.54927112589688,0,0,1,3060.0,250.0,12.24,97.92,55.47901909448698,443.83215275589583
3,62,0,../static/images/invador4.png,1,80,2,40.0,left,70,2,887.0,0.413444254407662,0,0,1,3060.0,252.0,12.142857142857142,24.285714285714285,55.36454455498151,110.72908910996301
3,63,0,../static/images/invador4.png,1,80,2,40.0,right,74,2,813.0,-0.14318613294467,0,0,1,3140.0,256.0,12.265625,24.53125,56.09722840947555,112.1944568189511
3,64,0,../static/images/invador4.png,1,80,2,40.0,right,74,2,647.0,-1.39184348835666,1,0,1,3220.0,260.0,12.384615384615385,24.76923076923077,56.798503481787876,113.59700696357575
3,65,0,../static/images/invador3.png,3,80,8,10.0,right,70,1,904.0,0.541318802853468,0,0,1,3300.0,264.0,12.5,100.0,57.46971620748149,459.7577296598519
3,66,0,../static/images/invador4.png,1,80,2,40.0,left,70,2,818.0,-0.10557597163708,0,0,1,3300.0,266.0,12.406015037593985,24.81203007518797,57.35113409471636,114.70226818943271
3,67,0,../static/images/invador1.png,2,20,2,10.0,left,74,1,850.0,0.135129060731496,2,0,1,3380.0,270.0,12.518518518518519,25.037037037037038,57.99865658287851,115.99731316575702
3,68,0,../static/images/invador4.png,1,80,2,40.0,right,74,2,854.0,0.165217189777568,0,0,1,3380.0,272.0,12.426470588235293,24.852941176470587,57.87898306282306,115.75796612564612
3,69,0,../static/images/invador2.png,4,20,8,2.5,left,70,2,631.0,-1.51219600454095,1,0,1,3460.0,276.0,12.53623188405797,100.28985507246377,58.503877656071985,468.0310212485759
3,70,0,../static/images/invador3.png,3,80,8,10.0,left,74,1,898.0,0.49618660928436,0,0,1,3480.0,286.0,12.167832167832168,97.34265734265735,56.426532059780435,451.4122564782435
3,71,0,../static/images/invador4.png,1,80,2,40.0,right,74,2,799.0,-0.248494584605922,0,0,1,3480.0,288.0,12.083333333333334,24.166666666666668,56.31010243685518,112.62020487371036
3,72,0,../static/images/invador4.png,1,80,2,40.0,left,70,2,886.0,0.405922222146144,0,0,1,3560.0,292.0,12.191780821917808,24.383561643835616,57.00225199900769,114.00450399801538
3,73,0,../static/images/invador4.png,1,80,2,40.0,left,70,2,928.0,0.7218475771299,0,0,1,3640.0,296.0,12.297297297297296,24.594594594594593,57.66473040804077,115.32946081608154
3,74,0,../static/images/invador4.png,1,80,2,40.0,right,74,2,999.0,1.25591186769768,0,0,1,3720.0,300.0,12.4,24.8,58.29880961061968,116.59761922123936
3,75,0,../static/images/invador1.png,2,20,2,10.0,left,70,2,921.0,0.669193351299274,0,0,1,3800.0,304.0,12.5,25.0,58.90570702744254,117.81141405488508
3,76,0,../static/images/invador2.png,4,20,8,2.5,right,70,1,1169.0,2.53465735215574,0,0,1,3820.0,308.0,12.402597402597403,99.22077922077922,57.15704438715298,457.25635509722383
3,77,0,../static/images/invador3.png,3,80,8,10.0,right,70,1,993.0,1.21077967412857,0,0,1,3820.0,310.0,12.32258064516129,98.58064516129032,57.0391074365272,456.3128594922176
3,78,0,../static/images/invador4.png,1,80,2,40.0,right,70,1,532.0,-2.25687719843123,2,0,1,3820.0,312.0,12.243589743589743,24.487179487179485,56.92141383515911,113.84282767031821
3,79,0,../static/images/invador4.png,1,80,2,40.0,left,70,2,954.0,0.917420415929368,0,0,1,3820.0,314.0,12.165605095541402,24.331210191082803,56.80396308092565,113.6079261618513
3,80,0,../static/images/invador1.png,2,20,2,10.0,right,74,2,1145.0,2.35412857787931,0,0,1,3900.0,318.0,12.264150943396226,24.528301886792452,57.474941763847504,114.94988352769501
3,81,0,../static/images/invador4.png,1,80,2,40.0,left,70,2,833.0,0.00725451228568999,0,0,1,3920.0,322.0,12.173913043478262,24.347826086956523,55.78761334600846,111.57522669201693
3,82,0,../static/images/invador4.png,1,80,2,40.0,right,74,2,779.0,-0.398935229836282,0,0,1,4000.0,326.0,12.269938650306749,24.539877300613497,56.502161035192266,113.00432207038453
3,83,0,../static/images/invador2.png,4,20,8,2.5,left,74,1,1082.0,1.88024054540367,0,0,1,4080.0,330.0,12.363636363636363,98.9090909090909,57.18607740557414,457.4886192445931
3,84,0,../static/images/invador2.png,4,20,8,2.5,right,70,1,985.0,1.15060341603643,0,0,1,4080.0,332.0,12.289156626506024,98.3132530120482,57.06808054867265,456.5446443893812
3,85,0,../static/images/invador3.png,3,80,8,10.0,right,70,1,860.0,0.210349383346676,0,0,1,4080.0,334.0,12.215568862275449,97.72455089820359,56.95032716463851,455.60261731710807
3,86,0,../static/images/invador4.png,1,80,2,40.0,left,70,2,801.0,-0.233450520082886,0,0,1,4080.0,336.0,12.142857142857142,24.285714285714285,56.83281675109362,113.66563350218723
3,87,0,../static/images/invador4.png,1,80,2,40.0,left,70,2,872.0,0.300613770484892,0,0,1,4160.0,340.0,12.235294117647058,24.470588235294116,57.5025585313106,115.0051170626212
3,88,0,../static/images/invador1.png,2,20,2,10.0,right,74,2,880.0,0.360790028577036,0,0,1,4240.0,344.0,12.325581395348838,24.651162790697676,58.143589737978274,116.28717947595655
3,89,0,../static/images/invador4.png,1,80,2,40.0,right,74,2,956.0,0.932464480452404,0,0,1,4260.0,348.0,12.241379310344827,24.482758620689655,56.42759763600465,112.8551952720093
3,90,0,../static/images/invador4.png,1,80,2,40.0,right,74,2,1117.0,2.1435116745568,0,0,1,4340.0,352.0,12.329545454545455,24.65909090909091,57.11471039941395,114.2294207988279
3,91,0,../static/images/invador4.png,1,80,2,40.0,left,74,1,970.0,1.03777293211366,2,0,1,4420.0,356.0,12.415730337078651,24.831460674157302,57.772367927815914,115.54473585563183
3,92,0,../static/images/invador4.png,1,80,2,40.0,right,74,2,936.0,0.782023835222044,1,0,1,4420.0,358.0,12.346368715083798,24.692737430167597,57.65316132822889,115.30632265645778
3,93,0,../static/images/invador1.png,2,20,2,10.0,right,74,2,888.0,0.42096628666918,0,0,1,4500.0,362.0,12.430939226519337,24.861878453038674,58.28773647555344,116.57547295110687
3,94,0,../static/images/invador4.png,1,80,2,40.0,left,70,2,838.0,0.04486467359328,0,0,1,4520.0,366.0,12.349726775956285,24.69945355191257,56.56556507338787,113.13113014677575
3,95,0,../static/images/invador3.png,3,80,8,10.0,left,74,1,902.0,0.526274738330432,0,0,1,4600.0,370.0,12.432432432432432,99.45945945945945,57.246763431610866,457.9741074528869
3,96,0,../static/images/invador2.png,4,20,8,2.5,left,70,0,NaN,NaN,0,1,1,4600.0,372.0,12.365591397849462,98.9247311827957,57.128641356113256,457.02913084890605
3,97,0,../static/images/invador4.png,1,80,2,40.0,right,74,2,1058.0,1.69971177112724,0,0,1,4600.0,382.0,12.041884816753926,24.083769633507853,56.541676904574956,113.08335380914991
3,98,0,../static/images/invador1.png,2,20,2,10.0,left,70,2,1012.0,1.35369828709741,0,0,1,4680.0,386.0,12.124352331606218,24.248704663212436,57.22389930377601,114.44779860755202
3,99,0,../static/images/invador2.png,4,20,8,2.5,left,74,1,844.0,0.089996867162388,0,0,1,4700.0,390.0,12.051282051282051,96.41025641025641,55.54733260519471,444.3786608415577
3,100,0,../static/images/invador4.png,1,80,2,40.0,left,70,2,988.0,1.17316951282098,0,0,1,4700.0,392.0,11.989795918367347,23.979591836734695,55.43271710866066,110.86543421732132
3,101,0,../static/images/invador4.png,1,80,2,40.0,right,74,2,1013.0,1.36122031935893,0,0,1,4780.0,396.0,12.070707070707071,24.141414141414142,56.16247853368373,112.32495706736746
3,102,0,../static/images/invador3.png,3,80,8,10.0,left,74,1,886.0,0.405922222146144,0,0,1,4860.0,400.0,12.15,97.2,56.86095645559344,454.8876516447475
3,103,0,../static/images/invador4.png,1,80,2,40.0,left,70,2,788.0,-0.33123693948262,0,0,1,4860.0,402.0,12.08955223880597,24.17910447761194,56.74363044817055,113.4872608963411
3,104,0,../static/images/invador4.png,1,80,2,40.0,left,70,2,819.0,-0.098053939375562,0,0,1,4940.0,406.0,12.167487684729064,24.334975369458128,57.41719547786262,114.83439095572524
3,105,0,../static/images/invador1.png,2,20,2,10.0,right,74,2,938.0,0.79706789974508,0,0,1,5020.0,410.0,12.24390243902439,24.48780487804878,58.06188603847357,116.12377207694713
3,106,0,../static/images/invador4.png,1,80,2,40.0,right,74,2,700.0,-0.993175778496204,1,0,1,5040.0,414.0,12.173913043478262,24.347826086956523,56.349396420805334,112.69879284161067
3,107,0,../static/images/invador3.png,3,80,8,10.0,right,70,1,845.0,0.097518899423906,0,0,1,5120.0,418.0,12.248803827751196,97.99043062200957,57.03986152358922,456.31889218871373
3,108,0,../static/images/invador4.png,1,80,2,40.0,right,74,2,819.0,-0.098053939375562,0,0,1,5120.0,420.0,12.19047619047619,24.38095238095238,56.92216636624968,113.84433273249935
3,109,0,../static/images/invador2.png,4,20,8,2.5,right,70,1,1081.0,1.87271851314215,0,0,1,5200.0,424.0,12.264150943396226,98.11320754716981,57.58807789610254,460.7046231688203
3,110,0,../static/images/invador4.png,1,80,2,40.0,right,74,2,936.0,0.782023835222044,0,0,1,5200.0,426.0,12.206572769953052,24.413145539906104,57.46925155768199,114.93850311536399
3,111,0,../static/images/invador4.png,1,80,2,40.0,left,70,2,847.0,0.112562963946942,0,0,1,5280.0,430.0,12.279069767441861,24.558139534883722,58.11171057181862,116.22342114363724
3,112,0,../static/images/invador2.png,4,20,8,2.5,right,70,1,928.0,0.7218475771299,0,0,1,5360.0,434.0,12.350230414746544,98.80184331797236,58.72662857339993,469.8130285871994
3,113,0,../static/images/invador4.png,1,80,2,40.0,left,70,2,656.0,-1.324145198003,1,0,1,5360.0,436.0,12.293577981651376,24.587155963302752,58.605452967335246,117.21090593467049
3,114,0,../static/images/invador4.png,1,80,2,40.0,left,70,2,989.0,1.1806915450825,0,0,1,5440.0,440.0,12.363636363636363,24.727272727272727,59.19920515877956,118.39841031755913
3,115,0,../static/images/invador3.png,3,80,8,10.0,right,70,1,825.0,-0.052921745806454,0,0,1,5520.0,444.0,12.432432432432432,99.45945945945945,59.767504307773685,478.1400344621895
3,116,0,../static/images/invador1.png,2,20,2,10.0,left,70,2,906.0,0.556362867376504,0,0,1,5520.0,446.0,12.376681614349776,24.753363228699552,59.644180975013036,119.28836195002607
3,117,0,../static/images/invador4.png,1,80,2,40.0,right,74,2,820.0,-0.090531907114044,0,0,1,5540.0,450.0,12.311111111111112,24.622222222222224,57.86386134211493,115.72772268422986
3,118,0,../static/images/invador4.png,1,80,2,40.0,left,70,2,826.0,-0.045399713544936,0,0,1,5620.0,454.0,12.37885462555066,24.75770925110132,58.48940417515925,116.9788083503185
3,119,0,../static/images/invador4.png,1,80,2,40.0,right,70,1,731.0,-0.759992778389146,2,0,1,5700.0,458.0,12.445414847161572,24.890829694323145,59.08813116059357,118.17626232118714
3,120,0,../static/images/invador4.png,1,80,2,40.0,right,70,1,767.0,-0.489199616974498,2,0,1,5700.0,460.0,12.391304347826088,24.782608695652176,58.96620963574959,117.93241927149919
3,121,0,../static/images/invador4.png,1,80,2,40.0,right,74,2,751.0,-0.609552133158786,1,0,1,5700.0,462.0,12.337662337662337,24.675324675324674,58.84453968187137,117.68907936374274
3,122,0,../static/images/invador1.png,2,20,2,10.0,left,70,2,1054.0,1.66962364208117,0,0,1,5780.0,466.0,12.40343347639485,24.8068669527897,59.42804267443768,118.85608534887535
3,123,0,../static/images/invador2.png,4,20,8,2.5,left,74,1,1049.0,1.63201348077358,0,0,1,5800.0,470.0,12.340425531914894,98.72340425531915,57.65698848496685,461.2559078797348
3,124,0,../static/images/invador4.png,1,80,2,40.0,left,70,2,938.0,0.79706789974508,0,0,1,5800.0,472.0,12.288135593220339,24.576271186440678,57.538019957516,115.076039915032
3,125,0,../static/images/invador3.png,3,80,8,10.0,right,70,1,892.0,0.451054415715252,0,0,1,5880.0,476.0,12.352941176470589,98.82352941176471,58.17753099937493,465.42024799499944
3,126,0,../static/images/invador2.png,4,20,8,2.5,left,74,1,1003.0,1.28599999674375,0,0,1,5880.0,478.0,12.301255230125523,98.41004184100419,58.057488392648665,464.4599071411893
3,127,0,../static/images/invador3.png,3,80,8,10.0,right,70,1,899.0,0.503708641545878,0,0,1,5880.0,480.0,12.25,98.0,57.937693479957915,463.5015478396633
3,128,0,../static/images/invador1.png,2,20,2,10.0,left,74,1,858.0,0.19530531882364,2,0,1,5880.0,482.0,12.199170124481327,24.398340248962654,57.81814575021468,115.63629150042937
3,129,0,../static/images/invador4.png,1,80,2,40.0,left,70,2,847.0,0.112562963946942,0,0,1,5880.0,484.0,12.148760330578513,24.297520661157026,57.698844693385546,115.39768938677109
3,130,0,../static/images/invador4.png,1,80,2,40.0,right,74,2,862.0,0.225393447869712,0,0,1,5960.0,488.0,12.21311475409836,24.42622950819672,58.3314614805569,116.6629229611138
3,131,0,../static/images/invador4.png,1,80,2,40.0,left,70,2,807.0,-0.188318326513778,1,0,1,6040.0,492.0,12.276422764227643,24.552845528455286,58.93695917297695,117.8739183459539
3,132,0,../static/images/invador4.png,1,80,2,40.0,left,70,2,556.0,-2.0763484241548,1,0,1,6120.0,496.0,12.338709677419354,24.677419354838708,59.516500315356886,119.03300063071377
3,133,0,../static/images/invador4.png,1,80,2,40.0,left,70,2,997.0,1.24086780317464,0,0,1,6200.0,500.0,12.4,24.8,60.071197616297276,120.14239523259455
3,134,0,../static/images/invador3.png,3,80,8,10.0,right,70,1,868.0,0.27052564143882,0,0,1,6280.0,504.0,12.46031746031746,99.68253968253968,60.60211608466866,484.81692867734927
3,135,0,../static/images/invador4.png,1,80,2,40.0,left,70,2,857.0,0.187783286562122,0,0,1,6280.0,506.0,12.411067193675889,24.822134387351777,60.477070627032965,120.95414125406593
