subj,trial_index_actual,block,stimulus,stim_rank,reward_percent,delay_s,profitability,stim_left_right,key_press,approach_avoid,rt,rt_z,force_trial,missed,order_condition,reward_sum,delay_sum,Q_arithmetic,opp_cost_arithmetic,Q_estimate,opp_cost_estimate,dv,dv_abs,choice_log_reg,reward_factor,delay_factor,stim_rank_factor,reward_factor_1back,delay_factor_1back,reward_factor_2back,delay_factor_2back,reward_factor_3back,delay_factor_3back,choice_log_reg_1back,choice_reward_1back_interaction,choice_delay_1back_interaction,change_delay,change_reward,stim_rank_factor_1back
2,0,1,../static/images/invador1.png,4,20,8,2.5,right,74,2,1253,1.132791893,0,0,1,0,2,0,0,7.62054084395504,60.9643267516403,-40.9643267516403,40.9643267516403,1,-1,-1,-1,NaN,NaN,NaN,NaN,NaN,NaN,NaN,NaN,NaN,0,0,NaN
2,2,1,../static/images/invador3.png,2,20,2,10,right,74,2,1185,0.859416502,0,0,1,20,22,0.909090909090909,1.81818181818182,6.38666548213854,12.7733309642771,7.22666903572292,7.22666903572292,1,-1,1,0,-1,-1,-1,-1,NaN,NaN,NaN,NaN,NaN,10,20,-1
2,3,1,../static/images/invador4.png,1,80,2,40,left,70,2,1148,0.710668127,0,0,1,40,26,1.53846153846154,3.07692307692308,6.27352679776137,12.5470535955227,67.4529464044773,67.4529464044773,1,1,1,1,-1,1,-1,-1,-1,-1,1,-1,1,10,0,0
2,6,1,../static/images/invador2.png,3,80,8,10,right,74,2,1351,1.526774075,0,0,1,120,42,2.85714285714286,22.8571428571429,5.99365169310085,47.9492135448068,32.0507864551932,32.0507864551932,1,1,-1,0,-1,-1,-1,-1,1,1,NaN,NaN,NaN,2,0,-1
2,9,1,../static/images/invador3.png,2,20,2,10,left,74,1,1428,1.836331504,0,0,1,280,64,4.375,8.75,6.1741681120411,12.3483362240822,7.6516637759178,7.6516637759178,0,-1,1,0,1,-1,-1,-1,1,-1,1,1,-1,2,0,0
2,10,1,../static/images/invador1.png,4,20,8,2.5,left,74,1,1084,0.453373641,0,0,1,280,66,4.24242424242424,33.9393939393939,6.05540544083063,48.443243526645,-28.443243526645,28.443243526645,0,-1,-1,-1,-1,1,1,-1,-1,-1,0,-0,0,10,80,0
2,12,1,../static/images/invador4.png,1,80,2,40,left,70,2,1391,1.687583129,0,0,1,280,70,4,8,5.82468950304405,11.6493790060881,68.3506209939119,68.3506209939119,1,1,1,1,-1,-1,-1,-1,-1,1,0,-0,-0,2,0,-1
2,15,1,../static/images/invador2.png,3,80,8,10,left,70,2,1337,1.470490906,0,0,1,380,86,4.41860465116279,35.3488372093023,5.74479734896157,45.9583787916926,34.0416212083074,34.0416212083074,1,1,-1,0,1,1,-1,-1,1,1,0,0,0,10,20,1
2,16,1,../static/images/invador1.png,4,20,8,2.5,left,74,1,1118,0.590061337,0,0,1,460,96,4.79166666666667,38.3333333333333,5.92102929197112,47.3682343357689,-27.3682343357689,27.3682343357689,0,-1,-1,-1,1,-1,1,1,-1,-1,1,1,-1,2,0,0
2,18,1,../static/images/invador1.png,4,20,8,2.5,left,74,1,1043,0.288544361,0,0,1,460,100,4.6,36.8,5.69543319620061,45.5634655696049,-25.5634655696049,25.5634655696049,0,-1,-1,-1,-1,-1,-1,-1,1,-1,0,-0,-0,2,0,-1
2,19,1,../static/images/invador3.png,2,20,2,10,left,74,1,1159,0.754890617,0,0,1,460,102,4.50980392156863,9.01960784313725,5.58587918863116,11.1717583772623,8.82824162273767,8.82824162273767,0,-1,1,0,-1,-1,-1,-1,-1,-1,0,-0,-0,2,0,-1
2,20,1,../static/images/invador1.png,4,20,8,2.5,left,74,1,1033,0.248342097,0,0,1,460,104,4.42307692307692,35.3846153846154,5.47843249760132,43.8274599808105,-23.8274599808105,23.8274599808105,0,-1,-1,-1,-1,1,-1,-1,-1,-1,0,-0,0,2,0,0
2,24,1,../static/images/invador4.png,1,80,2,40,right,74,2,1044,0.292564587,0,0,1,480,122,3.9344262295082,7.86885245901639,4.74491951983158,9.48983903966317,70.5101609603368,70.5101609603368,1,1,1,1,-1,1,-1,-1,-1,-1,1,-1,1,10,0,0
2,25,1,../static/images/invador1.png,4,20,8,2.5,left,74,1,1058,0.348847756,0,0,1,560,126,4.44444444444444,35.5555555555556,5.27830515377979,42.2264412302383,-22.2264412302383,22.2264412302383,0,-1,-1,-1,1,1,-1,1,-1,-1,1,1,1,4,20,1
2,26,1,../static/images/invador2.png,3,80,8,10,left,70,2,1467,1.993120331,0,0,1,560,128,4.375,35,5.17677477622101,41.4141982097681,38.5858017902319,38.5858017902319,1,1,-1,0,-1,-1,1,1,-1,1,0,-0,-0,4,80,-1
2,27,1,../static/images/invador1.png,4,20,8,2.5,left,74,1,872,-0.398914345,0,0,1,640,138,4.63768115942029,37.1014492753623,5.41055736389951,43.2844589111961,-23.2844589111961,23.2844589111961,0,-1,-1,-1,1,-1,-1,-1,1,1,1,1,-1,2,0,0
2,28,1,../static/images/invador1.png,4,20,8,2.5,left,74,1,828,-0.575804304,0,0,1,640,140,4.57142857142857,36.5714285714286,5.30648306050939,42.4518644840751,-22.4518644840751,22.4518644840751,0,-1,-1,-1,-1,-1,1,-1,-1,-1,0,-0,-0,10,80,-1
2,31,1,../static/images/invador1.png,4,20,8,2.5,left,74,1,974,0.011148743,0,0,1,640,146,4.38356164383562,35.0684931506849,5.00611833363444,40.0489466690755,-20.0489466690755,20.0489466690755,0,-1,-1,-1,-1,-1,1,1,-1,-1,0,-0,-0,2,0,-1
2,32,1,../static/images/invador1.png,4,20,8,2.5,right,70,1,935,-0.145640085,0,0,1,640,148,4.32432432432432,34.5945945945946,4.90982358187045,39.2785886549636,-19.2785886549636,19.2785886549636,0,-1,-1,-1,-1,-1,-1,-1,1,1,0,-0,-0,2,0,-1
2,33,1,../static/images/invador3.png,2,20,2,10,right,70,1,1326,1.426268417,0,0,1,640,150,4.26666666666667,8.53333333333333,4.81538109938963,9.63076219877926,10.3692378012207,10.3692378012207,0,-1,1,0,-1,-1,-1,-1,-1,-1,0,-0,-0,2,0,-1
2,34,1,../static/images/invador2.png,3,80,8,10,right,70,1,749,-0.893402185,0,0,1,640,152,4.21052631578947,33.6842105263158,4.72275525702803,37.7820420562243,42.2179579437757,42.2179579437757,0,1,-1,0,-1,1,-1,-1,-1,-1,0,-0,0,2,0,0
2,35,1,../static/images/invador1.png,4,20,8,2.5,right,70,1,1001,0.119694854,0,0,1,640,154,4.15584415584416,33.2467532467532,4.63191111096339,37.0552888877071,-17.0552888877071,17.0552888877071,0,-1,-1,-1,1,-1,-1,1,-1,-1,0,0,-0,2,0,0
2,37,1,../static/images/invador1.png,4,20,8,2.5,left,74,1,1052,0.324726398,0,0,1,640,158,4.05063291139241,32.4050632911392,4.45543148030081,35.6434518424064,-15.6434518424064,15.6434518424064,0,-1,-1,-1,1,-1,-1,-1,1,-1,0,0,-0,2,0,0
2,40,1,../static/images/invador3.png,2,20,2,10,right,70,1,1271,1.205155968,0,0,1,680,180,3.77777777777778,7.55555555555556,3.88905888889152,7.77811777778305,12.221882222217,12.221882222217,0,-1,1,0,-1,-1,-1,-1,-1,-1,1,-1,-1,10,20,-1
2,41,1,../static/images/invador4.png,1,80,2,40,left,70,2,925,-0.185842348,0,0,1,680,182,3.73626373626374,7.47252747252747,3.81425123646644,7.62850247293289,72.3714975270671,72.3714975270671,1,1,1,1,-1,1,-1,-1,-1,-1,0,-0,0,10,20,0
2,42,1,../static/images/invador2.png,3,80,8,10,right,74,2,1358,1.55491566,0,0,1,760,186,4.08602150537634,32.6881720430108,4.39174776338577,35.1339821070862,44.8660178929138,44.8660178929138,1,1,-1,0,1,1,-1,1,-1,-1,1,1,1,2,0,1
2,43,1,../static/images/invador1.png,4,20,8,2.5,right,70,1,1004,0.131755533,0,0,1,840,196,4.28571428571429,34.2857142857143,4.70506734983747,37.6405387986997,-17.6405387986997,17.6405387986997,0,-1,-1,-1,1,-1,1,1,-1,1,1,1,-1,4,80,0
2,44,1,../static/images/invador1.png,4,20,8,2.5,left,74,1,798,-0.696411094,0,0,1,840,198,4.24242424242424,33.9393939393939,4.61456343796599,36.9165075037279,-16.9165075037279,16.9165075037279,0,-1,-1,-1,-1,-1,1,-1,1,1,0,-0,-0,10,80,-1
2,45,1,../static/images/invador4.png,1,80,2,40,left,70,2,1108,0.549859073,0,0,1,840,200,4.2,8.4,4.52580040618293,9.05160081236587,70.9483991876341,70.9483991876341,1,1,1,1,-1,-1,-1,-1,1,-1,0,-0,-0,2,0,-1
2,47,1,../static/images/invador3.png,2,20,2,10,right,70,1,1454,1.940857389,0,0,1,920,206,4.46601941747573,8.93203883495146,4.97205632860985,9.94411265721971,10.0558873427803,10.0558873427803,0,-1,1,0,-1,-1,1,1,-1,-1,0,-0,-0,4,80,-1
2,48,1,../static/images/invador1.png,4,20,8,2.5,left,74,1,818,-0.616006567,0,0,1,920,208,4.42307692307692,35.3846153846154,4.87641677356712,39.011334188537,-19.011334188537,19.011334188537,0,-1,-1,-1,-1,1,-1,-1,1,1,0,-0,0,2,0,0
2,49,1,../static/images/invador1.png,4,20,8,2.5,left,74,1,999,0.111654401,0,0,1,920,210,4.38095238095238,35.0476190476191,4.78261688482828,38.2609350786262,-18.2609350786262,18.2609350786262,0,-1,-1,-1,-1,-1,-1,1,-1,-1,0,-0,-0,2,0,-1
2,50,1,../static/images/invador4.png,1,80,2,40,right,74,2,1125,0.618202921,0,0,1,920,212,4.33962264150943,8.67924528301887,4.69062127565288,9.38124255130577,70.6187574486942,70.6187574486942,1,1,1,1,-1,-1,-1,-1,-1,1,0,-0,-0,2,0,-1
2,51,1,../static/images/invador2.png,3,80,8,10,left,70,2,1417,1.792109014,0,0,1,1000,216,4.62962962962963,37.037037037037,5.22658048396727,41.8126438717381,38.1873561282619,38.1873561282619,1,1,-1,0,1,1,-1,-1,-1,-1,1,1,1,2,0,1
2,52,1,../static/images/invador1.png,4,20,8,2.5,right,70,1,1036,0.260402776,0,0,1,1080,226,4.7787610619469,38.2300884955752,5.45531688030312,43.642535042425,-23.642535042425,23.642535042425,0,-1,-1,-1,1,-1,1,1,-1,-1,1,1,-1,4,80,0
2,53,1,../static/images/invador1.png,4,20,8,2.5,left,74,1,869,-0.410975024,0,0,1,1080,228,4.73684210526316,37.8947368421053,5.35038160914637,42.803052873171,-22.803052873171,22.803052873171,0,-1,-1,-1,-1,-1,1,-1,1,1,0,-0,-0,10,80,-1
2,54,1,../static/images/invador1.png,4,20,8,2.5,left,74,1,790,-0.728572905,0,0,1,1080,230,4.69565217391304,37.5652173913044,5.24746481122855,41.9797184898284,-21.9797184898284,21.9797184898284,0,-1,-1,-1,-1,-1,-1,-1,1,-1,0,-0,-0,2,0,-1
2,55,1,../static/images/invador3.png,2,20,2,10,right,70,1,1106,0.54181862,0,0,1,1080,232,4.6551724137931,9.31034482758621,5.14652766038404,10.2930553207681,9.70694467923192,9.70694467923192,0,-1,1,0,-1,-1,-1,-1,-1,-1,0,-0,-0,2,0,-1
2,57,1,../static/images/invador1.png,4,20,8,2.5,left,74,1,901,-0.282327781,0,0,1,1100,244,4.50819672131148,36.0655737704918,4.72569874589984,37.8055899671987,-17.8055899671987,17.8055899671987,0,-1,-1,-1,-1,-1,-1,1,-1,-1,1,-1,-1,2,0,-1
2,58,1,../static/images/invador2.png,3,80,8,10,left,70,2,1369,1.599138149,0,0,1,1100,246,4.47154471544715,35.7723577235772,4.6347979806122,37.0783838448976,42.9216161551024,42.9216161551024,1,1,-1,0,-1,-1,-1,-1,-1,1,0,-0,-0,10,20,-1
2,59,1,../static/images/invador1.png,4,20,8,2.5,right,70,1,819,-0.611986341,0,0,1,1180,256,4.609375,36.875,4.92349231912556,39.3879385530045,-19.3879385530045,19.3879385530045,0,-1,-1,-1,1,-1,-1,-1,-1,-1,1,1,-1,2,0,0
2,60,1,../static/images/invador1.png,4,20,8,2.5,right,70,1,750,-0.889381959,0,0,1,1180,258,4.57364341085271,36.5891472868217,4.82878691284366,38.6302953027493,-18.6302953027493,18.6302953027493,0,-1,-1,-1,-1,-1,1,-1,-1,-1,0,-0,-0,10,80,-1
2,61,1,../static/images/invador4.png,1,80,2,40,right,74,2,1400,1.723765166,0,0,1,1180,260,4.53846153846154,9.07692307692308,4.73590320412879,9.47180640825757,70.5281935917424,70.5281935917424,1,1,1,1,-1,-1,-1,-1,1,-1,0,-0,-0,2,0,-1
2,63,1,../static/images/invador3.png,2,20,2,10,right,70,1,829,-0.571784077,0,0,1,1280,268,4.77611940298507,9.55223880597015,5.20951755597216,10.4190351119443,9.58096488805568,9.58096488805568,0,-1,1,0,-1,1,1,1,-1,-1,1,-1,1,4,80,0
2,64,1,../static/images/invador4.png,1,80,2,40,left,70,2,1057,0.344827529,0,0,1,1280,270,4.74074074074074,9.48148148148148,5.10931033624024,10.2186206724805,69.7813793275195,69.7813793275195,1,1,1,1,-1,1,-1,1,1,1,0,-0,0,4,20,0
2,65,1,../static/images/invador1.png,4,20,8,2.5,left,74,1,949,-0.089356916,0,0,1,1360,274,4.96350364963504,39.7080291970803,5.62542493539596,45.0033994831677,-25.0033994831677,25.0033994831677,0,-1,-1,-1,1,1,-1,1,-1,1,1,1,1,2,0,1
2,66,1,../static/images/invador2.png,3,80,8,10,right,74,2,1113,0.569960205,0,0,1,1360,276,4.92753623188406,39.4202898550725,5.51721756560979,44.1377405248783,35.8622594751217,35.8622594751217,1,1,-1,0,-1,-1,1,1,-1,1,0,-0,-0,4,80,-1
2,68,1,../static/images/invador1.png,4,20,8,2.5,left,74,1,976,0.019189195,0,0,1,1440,288,5,40,5.60654795315652,44.8523836252521,-24.8523836252521,24.8523836252521,0,-1,-1,-1,-1,-1,1,-1,-1,-1,0,-0,-0,10,80,-1
2,69,1,../static/images/invador1.png,4,20,8,2.5,left,74,1,752,-0.881341506,0,0,1,1440,290,4.96551724137931,39.7241379310345,5.49870368991271,43.9896295193017,-23.9896295193017,23.9896295193017,0,-1,-1,-1,-1,-1,-1,-1,1,-1,0,-0,-0,2,0,-1
2,71,1,../static/images/invador1.png,4,20,8,2.5,left,74,1,882,-0.358712081,0,0,1,1520,296,5.13513513513514,41.0810810810811,5.89560554823793,47.1648443859034,-27.1648443859034,27.1648443859034,0,-1,-1,-1,1,1,-1,-1,-1,-1,1,1,1,2,0,1
2,72,1,../static/images/invador1.png,4,20,8,2.5,left,74,1,825,-0.587864983,0,0,1,1520,298,5.1006711409396,40.8053691275168,5.78220114288225,46.257609143058,-26.257609143058,26.257609143058,0,-1,-1,-1,-1,-1,1,1,-1,-1,0,-0,-0,4,80,-1
2,73,1,../static/images/invador1.png,4,20,8,2.5,right,70,1,663,-1.239141651,0,0,1,1520,300,5.06666666666667,40.5333333333333,5.67097811805633,45.3678249444507,-25.3678249444507,25.3678249444507,0,-1,-1,-1,-1,-1,-1,-1,1,1,0,-0,-0,2,0,-1
2,74,1,../static/images/invador3.png,2,20,2,10,left,74,1,673,-1.198939387,0,0,1,1520,302,5.03311258278146,10.0662251655629,5.56189451400561,11.1237890280112,8.87621097198878,8.87621097198878,0,-1,1,0,-1,-1,-1,-1,-1,-1,0,-0,-0,2,0,-1
2,76,1,../static/images/invador1.png,4,20,8,2.5,right,70,1,806,-0.664249283,0,0,1,1600,314,5.09554140127389,40.7643312101911,5.66051187486098,45.2840949988878,-25.2840949988878,25.2840949988878,0,-1,-1,-1,1,-1,-1,1,-1,-1,1,1,-1,2,0,0
2,77,1,../static/images/invador1.png,4,20,8,2.5,right,70,1,784,-0.752694263,0,0,1,1600,316,5.06329113924051,40.5063291139241,5.55162959331668,44.4130367465335,-24.4130367465335,24.4130367465335,0,-1,-1,-1,-1,-1,1,-1,-1,1,0,-0,-0,10,80,-1
2,81,1,../static/images/invador1.png,4,20,8,2.5,right,70,1,1041,0.280503908,0,0,1,1680,332,5.06024096385542,40.4819277108434,5.45044423969261,43.6035539175409,-23.6035539175409,23.6035539175409,0,-1,-1,-1,1,1,1,-1,-1,-1,0,0,0,10,80,1
2,82,1,../static/images/invador3.png,2,20,2,10,left,74,1,1091,0.481515225,0,0,1,1680,334,5.02994011976048,10.059880239521,5.34560269578855,10.6912053915771,9.3087946084229,9.3087946084229,0,-1,1,0,-1,-1,1,1,1,-1,0,-0,-0,2,0,-1
2,83,1,../static/images/invador1.png,4,20,8,2.5,right,70,1,674,-1.194919161,0,0,1,1680,336,5,40,5.24277782224103,41.9422225779282,-21.9422225779282,21.9422225779282,0,-1,-1,-1,-1,1,-1,-1,1,1,0,-0,0,2,0,0
2,84,1,../static/images/invador1.png,4,20,8,2.5,right,70,1,826,-0.583844757,0,0,1,1680,338,4.97041420118343,39.7633136094675,5.14193082756363,41.1354466205091,-21.1354466205091,21.1354466205091,0,-1,-1,-1,-1,-1,-1,1,-1,-1,0,-0,-0,2,0,-1
2,85,1,../static/images/invador3.png,2,20,2,10,right,70,1,1264,1.177014383,0,0,1,1680,340,4.94117647058824,9.88235294117647,5.04302366644018,10.0860473328804,9.91395266711964,9.91395266711964,0,-1,1,0,-1,-1,-1,-1,-1,1,0,-0,-0,2,0,-1
2,88,1,../static/images/invador1.png,4,20,8,2.5,left,74,1,863,-0.435096382,0,0,1,1780,362,4.9171270718232,39.3370165745856,4.92319823891822,39.3855859113458,-19.3855859113458,19.3855859113458,0,-1,-1,-1,1,-1,-1,-1,-1,1,1,1,-1,10,20,0
2,89,1,../static/images/invador1.png,4,20,8,2.5,left,74,1,737,-0.941644901,0,0,1,1780,364,4.89010989010989,39.1208791208791,4.82849848939045,38.6279879151236,-18.6279879151236,18.6279879151236,0,-1,-1,-1,-1,-1,1,-1,-1,-1,0,-0,-0,10,80,-1
2,90,1,../static/images/invador4.png,1,80,2,40,left,70,2,1025,0.216180286,0,0,1,1780,366,4.86338797814208,9.72677595628415,4.73562032861971,9.47124065723942,70.5287593427606,70.5287593427606,1,1,1,1,-1,-1,-1,-1,1,-1,0,-0,-0,2,0,-1
2,91,1,../static/images/invador1.png,4,20,8,2.5,right,70,1,867,-0.419015476,0,0,1,1860,370,5.02702702702703,40.2162162162162,5.26944671641716,42.1555737313373,-22.1555737313373,22.1555737313373,0,-1,-1,-1,1,1,-1,-1,-1,-1,1,1,1,2,0,1
2,93,1,../static/images/invador3.png,2,20,2,10,right,70,1,1515,2.186091196,0,0,1,1860,374,4.97326203208556,9.94652406417112,5.06867645376935,10.1373529075387,9.86264709246131,9.86264709246131,0,-1,1,0,-1,-1,-1,-1,1,1,0,-0,-0,2,0,-1
2,94,1,../static/images/invador2.png,3,80,8,10,right,74,2,1325,1.42224819,0,0,1,1860,376,4.9468085106383,39.5744680851064,4.97117837075193,39.7694269660154,40.2305730339846,40.2305730339846,1,1,-1,0,-1,1,-1,-1,-1,-1,0,-0,0,2,0,0
2,95,1,../static/images/invador4.png,1,80,2,40,left,70,2,1044,0.292564587,0,0,1,1940,386,5.0259067357513,10.0518134715026,5.22579147863191,10.4515829572638,69.5484170427362,69.5484170427362,1,1,1,1,1,-1,-1,1,-1,-1,1,1,-1,2,0,0
2,96,1,../static/images/invador1.png,4,20,8,2.5,right,70,1,683,-1.158737124,0,0,1,2020,390,5.17948717948718,41.4358974358974,5.7363852200373,45.8910817602984,-25.8910817602984,25.8910817602984,0,-1,-1,-1,1,1,1,-1,-1,1,1,1,1,10,80,1
2,97,1,../static/images/invador1.png,4,20,8,2.5,right,70,1,705,-1.070292144,0,0,1,2020,392,5.1530612244898,41.2244897959184,5.6260434833918,45.0083478671344,-25.0083478671344,25.0083478671344,0,-1,-1,-1,-1,-1,1,1,1,-1,0,-0,-0,4,80,-1
2,98,1,../static/images/invador4.png,1,80,2,40,right,74,2,1285,1.261439136,0,0,1,2020,394,5.12690355329949,10.253807106599,5.5178242155797,11.0356484311594,68.9643515688406,68.9643515688406,1,1,1,1,-1,-1,-1,-1,1,1,0,-0,-0,2,0,-1
2,100,1,../static/images/invador1.png,4,20,8,2.5,left,74,1,891,-0.322530044,0,0,1,2120,408,5.19607843137255,41.5686274509804,5.59476459614732,44.7581167691786,-24.7581167691786,24.7581167691786,0,-1,-1,-1,-1,-1,1,1,-1,-1,1,-1,-1,4,80,-1
2,101,1,../static/images/invador2.png,3,80,8,10,right,70,1,575,-1.592921569,0,0,1,2120,410,5.17073170731707,41.3658536585366,5.48714699063762,43.8971759251009,36.1028240748991,36.1028240748991,0,1,-1,0,-1,-1,-1,-1,1,1,0,-0,-0,10,20,-1
2,102,1,../static/images/invador1.png,4,20,8,2.5,right,70,1,464,-2.039166694,0,0,1,2120,412,5.14563106796117,41.1650485436893,5.3815994541749,43.0527956333992,-23.0527956333992,23.0527956333992,0,-1,-1,-1,1,-1,-1,-1,-1,-1,0,0,-0,2,0,0
2,103,1,../static/images/invador1.png,4,20,8,2.5,left,74,1,733,-0.957725807,0,0,1,2120,414,5.1207729468599,40.9661835748792,5.27808216812689,42.2246573450151,-22.2246573450151,22.2246573450151,0,-1,-1,-1,-1,-1,1,-1,-1,-1,0,-0,-0,2,0,-1
2,104,1,../static/images/invador3.png,2,20,2,10,left,74,1,1159,0.754890617,0,0,1,2120,416,5.09615384615385,10.1923076923077,5.17655607978916,10.3531121595783,9.64688784042168,9.64688784042168,0,-1,1,0,-1,-1,-1,-1,1,-1,0,-0,-0,2,0,-1
2,105,1,../static/images/invador4.png,1,80,2,40,right,74,2,1157,0.746850164,0,0,1,2120,418,5.07177033492823,10.1435406698565,5.07698288765213,10.1539657753043,69.8460342246957,69.8460342246957,1,1,1,1,-1,1,-1,-1,-1,-1,0,-0,0,2,0,0
2,106,1,../static/images/invador1.png,4,20,8,2.5,left,74,1,744,-0.913503317,0,0,1,2200,422,5.21327014218009,41.7061611374408,5.59462971117843,44.7570376894274,-24.7570376894274,24.7570376894274,0,-1,-1,-1,1,1,-1,1,-1,-1,1,1,1,2,0,1
2,107,1,../static/images/invador1.png,4,20,8,2.5,right,70,1,721,-1.005968523,0,0,1,2200,424,5.18867924528302,41.5094339622642,5.48701470023676,43.8961176018941,-23.8961176018941,23.8961176018941,0,-1,-1,-1,-1,-1,1,1,-1,1,0,-0,-0,4,80,-1
2,109,1,../static/images/invador1.png,4,20,8,2.5,right,70,1,858,-0.455197513,0,0,1,2220,436,5.09174311926605,40.7339449541284,5.02580264072627,40.2064211258101,-20.2064211258101,20.2064211258101,0,-1,-1,-1,-1,-1,-1,-1,-1,-1,1,-1,-1,2,0,-1
2,111,1,../static/images/invador3.png,2,20,2,10,right,70,1,854,-0.471278419,0,0,1,2300,448,5.13392857142857,10.2678571428571,5.18800267384845,10.3760053476969,9.62399465230309,9.62399465230309,0,-1,1,0,1,-1,-1,-1,-1,-1,1,1,-1,2,0,0
2,112,1,../static/images/invador1.png,4,20,8,2.5,right,70,1,695,-1.110494408,0,0,1,2300,450,5.11111111111111,40.8888888888889,5.08820930175162,40.705674414013,-20.705674414013,20.705674414013,0,-1,-1,-1,-1,1,1,-1,-1,-1,0,-0,0,10,80,0
2,113,1,../static/images/invador1.png,4,20,8,2.5,left,74,1,699,-1.094413502,0,0,1,2300,452,5.08849557522124,40.7079646017699,4.99033549634366,39.9226839707492,-19.9226839707492,19.9226839707492,0,-1,-1,-1,-1,-1,-1,1,1,-1,0,-0,-0,2,0,-1
2,114,1,../static/images/invador3.png,2,20,2,10,right,70,1,630,-1.37180912,0,0,1,2300,454,5.06607929515418,10.1321585903084,4.89434433396724,9.78868866793449,10.2113113320655,10.2113113320655,0,-1,1,0,-1,-1,-1,-1,-1,1,0,-0,-0,2,0,-1
2,116,1,../static/images/invador1.png,4,20,8,2.5,left,74,1,891,-0.322530044,0,0,1,2300,458,5.02183406113537,40.174672489083,4.70786578122697,37.6629262498158,-17.6629262498158,17.6629262498158,0,-1,-1,-1,1,1,-1,1,-1,-1,0,0,0,2,0,1
2,118,1,../static/images/invador2.png,3,80,8,10,right,74,2,1253,1.132791893,0,0,1,2300,462,4.97835497835498,39.8268398268398,4.52849221503021,36.2279377202416,43.7720622797584,43.7720622797584,1,1,-1,0,-1,-1,-1,-1,1,1,0,-0,-0,2,0,-1
2,119,1,../static/images/invador1.png,4,20,8,2.5,left,74,1,853,-0.475298645,0,0,1,2380,472,5.04237288135593,40.3389830508475,4.82795719125211,38.6236575300169,-18.6236575300169,18.6236575300169,0,-1,-1,-1,1,-1,-1,-1,-1,-1,1,1,-1,2,0,0
2,120,1,../static/images/invador3.png,2,20,2,10,left,74,1,759,-0.853199922,0,0,1,2380,474,5.0210970464135,10.042194092827,4.73508944257441,9.47017888514883,10.5298211148512,10.5298211148512,0,-1,1,0,-1,-1,1,-1,-1,-1,0,-0,-0,10,80,-1
2,121,1,../static/images/invador2.png,3,80,8,10,right,74,2,1361,1.566976339,0,0,1,2380,476,5,40,4.64400804336147,37.1520643468918,42.8479356531082,42.8479356531082,1,1,-1,0,-1,1,-1,-1,1,-1,0,-0,0,2,0,0
2,126,1,../static/images/invador2.png,3,80,8,10,right,74,2,1444,1.900655125,0,0,1,2480,502,4.9402390438247,39.5219123505976,4.36006300123633,34.8805040098907,45.1194959901093,45.1194959901093,1,1,-1,0,1,1,-1,-1,-1,-1,0,0,0,2,0,1
2,127,1,../static/images/invador1.png,4,20,8,2.5,left,74,1,894,-0.310469365,0,0,1,2560,512,5,40,4.67659280956193,37.4127424764954,-17.4127424764954,17.4127424764954,0,-1,-1,-1,1,-1,1,1,-1,-1,1,1,-1,2,0,0
2,128,1,../static/images/invador3.png,2,20,2,10,left,74,1,968,-0.012972615,0,0,1,2560,514,4.98054474708171,9.96108949416342,4.58663661722177,9.17327323444354,10.8267267655565,10.8267267655565,0,-1,1,0,-1,-1,1,-1,1,1,0,-0,-0,10,80,-1
2,129,1,../static/images/invador4.png,1,80,2,40,left,70,2,1214,0.976003066,0,0,1,2560,516,4.96124031007752,9.92248062015504,4.49841076935885,8.9968215387177,71.0031784612823,71.0031784612823,1,1,1,1,-1,1,-1,-1,1,-1,0,-0,0,2,0,0
2,130,1,../static/images/invador1.png,4,20,8,2.5,right,70,1,704,-1.074312371,0,0,1,2640,520,5.07692307692308,40.6153846153846,5.04348018076343,40.3478414461075,-20.3478414461075,20.3478414461075,0,-1,-1,-1,1,1,-1,1,-1,-1,1,1,1,2,0,1
2,131,1,../static/images/invador1.png,4,20,8,2.5,left,74,1,853,-0.475298645,0,0,1,2640,522,5.05747126436782,40.4597701149425,4.94646675845373,39.5717340676299,-19.5717340676299,19.5717340676299,0,-1,-1,-1,-1,-1,1,1,-1,1,0,-0,-0,4,80,-1
2,133,1,../static/images/invador2.png,3,80,8,10,left,74,1,1959,3.971071694,0,0,1,2640,526,5.01901140684411,40.1520912547529,4.75800229838445,38.0640183870756,41.9359816129244,41.9359816129244,0,1,-1,0,-1,-1,-1,-1,-1,-1,0,-0,-0,2,0,-1
2,135,1,../static/images/invador1.png,4,20,8,2.5,left,74,1,1152,0.726749032,0,0,1,2640,538,4.90706319702602,39.2565055762082,4.23460889470729,33.8768711576583,-13.8768711576583,13.8768711576583,0,-1,-1,-1,-1,1,1,-1,-1,-1,NaN,NaN,NaN,2,0,0
2,137,1,../static/images/invador1.png,4,20,8,2.5,right,70,1,950,-0.08533669,0,0,1,2640,542,4.87084870848708,38.9667896678967,4.073266805916,32.586134447328,-12.586134447328,12.586134447328,0,-1,-1,-1,-1,-1,-1,-1,-1,1,0,-0,-0,2,0,-1
2,140,1,../static/images/invador2.png,3,80,8,10,right,74,2,1414,1.780048335,0,0,1,2720,550,4.94545454545455,39.5636363636364,4.49064771770881,35.9251817416705,44.0748182583295,44.0748182583295,1,1,-1,0,1,1,-1,-1,-1,-1,1,1,1,2,0,1
2,141,1,../static/images/invador1.png,4,20,8,2.5,right,70,1,1084,0.453373641,0,0,1,2800,560,5,40,4.79394700496437,38.3515760397149,-18.3515760397149,18.3515760397149,0,-1,-1,-1,1,-1,1,1,-1,-1,1,1,-1,4,80,0
2,142,1,../static/images/invador4.png,1,80,2,40,right,74,2,1236,1.064448045,0,0,1,2800,562,4.98220640569395,9.9644128113879,4.70173345625314,9.40346691250628,70.5965330874937,70.5965330874937,1,1,1,1,-1,-1,1,-1,1,1,0,-0,-0,10,80,-1
2,143,1,../static/images/invador1.png,4,20,8,2.5,right,70,1,823,-0.595905436,0,0,1,2880,566,5.08833922261484,40.7067137809187,5.23716598044398,41.8973278435519,-21.8973278435519,21.8973278435519,0,-1,-1,-1,1,1,-1,-1,1,-1,1,1,1,2,0,1
2,145,1,../static/images/invador1.png,4,20,8,2.5,left,74,1,839,-0.531581814,0,0,1,2880,570,5.05263157894737,40.4210526315789,5.03762564044053,40.3010051235243,-20.3010051235243,20.3010051235243,0,-1,-1,-1,-1,1,-1,-1,1,1,0,-0,0,2,0,0
2,146,1,../static/images/invador1.png,4,20,8,2.5,left,74,1,785,-0.748674037,0,0,1,2880,572,5.03496503496504,40.2797202797203,4.94072483262963,39.5257986610371,-19.5257986610371,19.5257986610371,0,-1,-1,-1,-1,-1,-1,1,-1,-1,0,-0,-0,2,0,-1
2,148,1,../static/images/invador1.png,4,20,8,2.5,left,74,1,1143,0.690566995,0,0,1,2880,576,5,40,4.75247914466639,38.0198331573311,-18.0198331573311,18.0198331573311,0,-1,-1,-1,1,1,-1,-1,-1,-1,0,0,0,2,0,1
2,149,1,../static/images/invador1.png,4,20,8,2.5,left,74,1,846,-0.50344023,0,0,1,2880,578,4.98269896193772,39.8615916955017,4.66106324735839,37.2885059788671,-17.2885059788671,17.2885059788671,0,-1,-1,-1,-1,-1,1,1,-1,-1,0,-0,-0,2,0,-1
2,150,1,../static/images/invador1.png,4,20,8,2.5,right,70,1,778,-0.776815621,0,0,1,2880,580,4.96551724137931,39.7241379310345,4.571405772555,36.57124618044,-16.57124618044,16.57124618044,0,-1,-1,-1,-1,-1,-1,-1,1,1,0,-0,-0,2,0,-1
2,151,-1,../static/images/invador4.png,1,80,2,40,right,74,2,1298,1.313702079,0,0,1,2880,582,4.94845360824742,9.89690721649485,4.48347289627377,8.96694579254755,71.0330542074525,71.0330542074525,1,1,1,1,-1,-1,-1,-1,-1,-1,0,-0,-0,2,0,-1
2,153,-1,../static/images/invador4.png,1,80,2,40,left,70,2,1222,1.008164877,0,0,1,2960,588,5.03401360544218,10.0680272108844,4.93251061315144,9.86502122630289,70.1349787736971,70.1349787736971,1,1,1,1,-1,1,1,1,-1,-1,0,-0,0,4,80,0
2,154,-1,../static/images/invador4.png,1,80,2,40,left,70,2,1022,0.204119607,0,0,1,3040,592,5.13513513513514,10.2702702702703,5.4570049903676,10.9140099807352,69.0859900192648,69.0859900192648,1,1,1,1,1,1,-1,1,1,1,1,1,1,2,0,1
2,155,-1,../static/images/invador3.png,2,20,2,10,right,70,1,761,-0.845159469,0,0,1,3120,596,5.23489932885906,10.4697986577181,5.95663990288418,11.9132798057684,8.08672019423165,8.08672019423165,0,-1,1,0,1,1,1,1,-1,1,1,1,1,4,80,1
2,156,-1,../static/images/invador4.png,1,80,2,40,right,74,2,1101,0.521717489,0,0,1,3120,598,5.21739130434783,10.4347826086957,5.84206147653298,11.684122953066,68.315877046934,68.315877046934,1,1,1,1,-1,1,1,1,1,1,0,-0,0,4,80,0
2,158,-1,../static/images/invador4.png,1,80,2,40,left,70,2,1111,0.561919752,0,0,1,3280,606,5.41254125412541,10.8250825082508,6.78201407001485,13.5640281400297,66.4359718599703,66.4359718599703,1,1,1,1,1,1,1,1,-1,1,1,1,1,4,80,1
2,159,-1,../static/images/invador2.png,3,80,8,10,left,70,2,1214,0.976003066,0,0,1,3360,610,5.50819672131148,44.0655737704918,7.21884751530321,57.7507801224257,22.2492198775743,22.2492198775743,1,1,-1,0,1,1,1,1,1,1,1,1,1,4,80,1
2,160,-1,../static/images/invador1.png,4,20,8,2.5,right,70,1,848,-0.495399777,0,0,1,3440,620,5.54838709677419,44.3870967741936,7.24573233476791,57.9658586781433,-37.9658586781433,37.9658586781433,0,-1,-1,-1,1,-1,1,1,1,1,1,1,-1,4,80,0
2,162,-1,../static/images/invador3.png,2,20,2,10,left,74,1,1082,0.445333188,0,0,1,3440,624,5.51282051282051,11.025641025641,6.96966396132847,13.9393279226569,6.06067207734307,6.06067207734307,0,-1,1,0,1,-1,-1,-1,1,-1,0,0,-0,2,0,0
2,165,-1,../static/images/invador1.png,4,20,8,2.5,right,70,1,971,-0.000911936,0,0,1,3520,632,5.56962025316456,44.5569620253165,7.13005385433192,57.0404308346554,-37.0404308346554,37.0404308346554,0,-1,-1,-1,1,1,1,1,-1,1,0,0,0,4,80,1
2,166,-1,../static/images/invador4.png,1,80,2,40,left,70,2,1320,1.402147058,0,0,1,3520,634,5.55205047318612,11.1041009463722,6.99290432645244,13.9858086529049,66.0141913470951,66.0141913470951,1,1,1,1,-1,-1,1,1,1,1,0,-0,-0,2,0,-1
2,167,-1,../static/images/invador4.png,1,80,2,40,left,70,2,942,-0.1174985,0,0,1,3600,638,5.64263322884013,11.2852664576803,7.41974220436556,14.8394844087311,65.1605155912689,65.1605155912689,1,1,1,1,1,1,-1,-1,1,1,1,1,1,2,0,1
2,169,-1,../static/images/invador1.png,4,20,8,2.5,left,74,1,975,0.015168969,0,0,1,3680,652,5.6441717791411,45.1533742331288,7.10203986235014,56.8163188988011,-36.8163188988011,36.8163188988011,0,-1,-1,-1,1,-1,1,1,1,1,NaN,NaN,NaN,4,80,0
2,170,-1,../static/images/invador4.png,1,80,2,40,right,74,2,986,0.059391459,0,0,1,3680,654,5.62691131498471,11.2538226299694,6.96542919516551,13.930858390331,66.069141609669,66.069141609669,1,1,1,1,-1,-1,1,-1,1,1,0,-0,-0,10,0,-1
2,171,-1,../static/images/invador4.png,1,80,2,40,right,74,2,1213,0.971982839,0,0,1,3760,658,5.71428571428571,11.4285714285714,7.39356931212259,14.7871386242452,65.2128613757548,65.2128613757548,1,1,1,1,1,1,-1,-1,1,-1,1,1,1,2,0,1
2,172,-1,../static/images/invador4.png,1,80,2,40,right,74,2,1144,0.694587222,0,0,1,3840,662,5.80060422960725,11.6012084592145,7.8014168681175,15.602833736235,64.397166263765,64.397166263765,1,1,1,1,1,1,1,1,-1,-1,1,1,1,4,80,1
2,173,-1,../static/images/invador3.png,2,20,2,10,right,70,1,915,-0.226044612,0,0,1,3920,666,5.88588588588589,11.7717717717718,8.18993366984411,16.3798673396882,3.62013266031178,3.62013266031178,0,-1,1,0,1,1,1,1,1,1,1,1,1,4,80,1
2,174,-1,../static/images/invador4.png,1,80,2,40,left,70,2,1059,0.352867982,0,0,1,3920,668,5.86826347305389,11.7365269461078,8.03239691638734,16.0647938327747,63.9352061672253,63.9352061672253,1,1,1,1,-1,1,1,1,1,1,0,-0,0,4,80,0
2,175,-1,../static/images/invador4.png,1,80,2,40,right,74,2,1087,0.46543432,0,0,1,4000,672,5.95238095238095,11.9047619047619,8.40996595469512,16.8199319093902,63.1800680906098,63.1800680906098,1,1,1,1,1,1,-1,1,1,1,1,1,1,2,0,1
2,176,-1,../static/images/invador1.png,4,20,8,2.5,right,70,1,778,-0.776815621,0,0,1,4080,676,6.03550295857988,48.2840236686391,8.76963934990889,70.1571147992712,-50.1571147992712,50.1571147992712,0,-1,-1,-1,1,1,1,1,-1,1,1,1,1,4,80,1
2,177,-1,../static/images/invador2.png,3,80,8,10,left,74,1,1152,0.726749032,0,0,1,4080,678,6.01769911504425,48.141592920354,8.60095171849885,68.8076137479908,11.1923862520092,11.1923862520092,0,1,-1,0,-1,-1,1,1,1,1,0,-0,-0,4,80,-1
2,178,-1,../static/images/invador3.png,2,20,2,10,right,70,1,695,-1.110494408,0,0,1,4080,680,6,12,8.4355088632826,16.8710177265652,3.1289822734348,3.1289822734348,0,-1,1,0,1,-1,-1,-1,1,1,0,0,-0,2,0,0
2,179,-1,../static/images/invador4.png,1,80,2,40,left,70,2,1066,0.381009567,0,0,1,4080,682,5.98240469208211,11.9648093841642,8.2732483696512,16.5464967393024,63.4535032606976,63.4535032606976,1,1,1,1,-1,1,1,-1,-1,-1,0,-0,0,2,0,0
2,180,-1,../static/images/invador4.png,1,80,2,40,left,70,2,1008,0.147836438,0,0,1,4160,686,6.06413994169096,12.1282798833819,8.63940176946912,17.2788035389382,62.7211964610618,62.7211964610618,1,1,1,1,1,1,-1,1,1,-1,1,1,1,2,0,1
2,182,-1,../static/images/invador4.png,1,80,2,40,right,74,2,1174,0.815194012,0,0,1,4320,694,6.22478386167147,12.4495677233429,9.32046739617561,18.6409347923512,61.3590652076488,61.3590652076488,1,1,1,1,1,1,1,1,1,1,1,1,1,4,80,1
2,184,-1,../static/images/invador4.png,1,80,2,40,right,74,2,1227,1.028266008,0,0,1,4400,700,6.28571428571429,12.5714285714286,9.45161434917418,18.9032286983484,61.0967713016516,61.0967713016516,1,1,1,1,1,-1,1,1,1,1,0,0,-0,4,80,0
2,185,-1,../static/images/invador4.png,1,80,2,40,right,74,2,848,-0.495399777,0,0,1,4480,704,6.36363636363636,12.7272727272727,9.7619167260953,19.5238334521906,60.4761665478094,60.4761665478094,1,1,1,1,1,1,1,-1,1,1,1,1,1,2,0,1
2,188,-1,../static/images/invador4.png,1,80,2,40,right,74,2,1222,1.008164877,0,0,1,4580,714,6.41456582633053,12.8291316526611,9.58609493935248,19.172189878705,60.827810121295,60.827810121295,1,1,1,1,-1,1,-1,-1,1,1,1,-1,1,2,0,0
2,189,-1,../static/images/invador4.png,1,80,2,40,right,74,2,1293,1.293600947,0,0,1,4660,718,6.49025069637883,12.9805013927577,9.89002333853515,19.7800466770703,60.2199533229297,60.2199533229297,1,1,1,1,1,1,-1,1,-1,-1,1,1,1,4,20,1
2,191,-1,../static/images/invador1.png,4,20,8,2.5,left,74,1,975,0.015168969,0,0,1,4740,724,6.54696132596685,52.3756906077348,9.98373866460253,79.8699093168202,-59.8699093168202,59.8699093168202,0,-1,-1,-1,-1,1,1,1,1,1,0,-0,0,4,80,0
2,193,-1,../static/images/invador4.png,1,80,2,40,right,74,2,1220,1.000124424,0,0,1,4820,736,6.54891304347826,13.0978260869565,9.55790736011533,19.1158147202307,60.8841852797693,60.8841852797693,1,1,1,1,1,-1,-1,-1,-1,1,1,1,-1,2,0,0
2,194,-1,../static/images/invador4.png,1,80,2,40,right,74,2,1185,0.859416502,0,0,1,4900,740,6.62162162162162,13.2432432432432,9.86317176624384,19.7263435324877,60.2736564675123,60.2736564675123,1,1,1,1,1,1,1,-1,-1,-1,1,1,1,10,80,1
2,195,-1,../static/images/invador4.png,1,80,2,40,right,74,2,1150,0.71870858,0,0,1,4980,744,6.69354838709677,13.3870967741935,10.153967552578,20.3079351051561,59.6920648948439,59.6920648948439,1,1,1,1,1,1,1,1,1,-1,1,1,1,4,80,1
2,196,-1,../static/images/invador2.png,3,80,8,10,right,70,1,1568,2.399163192,0,0,1,5060,748,6.76470588235294,54.1176470588235,10.4309804884201,83.4478439073605,-3.44784390736045,3.44784390736045,0,1,-1,0,1,1,1,1,1,1,1,1,1,4,80,1
2,197,-1,../static/images/invador4.png,1,80,2,40,left,70,2,1335,1.462450454,0,0,1,5060,750,6.74666666666667,13.4933333333333,10.2303362747108,20.4606725494217,59.5393274505783,59.5393274505783,1,1,1,1,1,-1,1,1,1,1,0,0,-0,4,80,0
2,198,-1,../static/images/invador3.png,2,20,2,10,left,74,1,847,-0.499420003,0,0,1,5140,754,6.81697612732096,13.6339522546419,10.5037295615452,21.0074591230904,-1.00745912309037,1.00745912309037,0,-1,1,0,1,1,1,-1,1,1,1,1,1,2,0,1
2,199,-1,../static/images/invador4.png,1,80,2,40,right,74,2,1147,0.706647901,0,0,1,5140,756,6.7989417989418,13.5978835978836,10.3016859893968,20.6033719787936,59.3966280212064,59.3966280212064,1,1,1,1,-1,1,1,1,1,-1,0,-0,0,4,80,0
2,200,-1,../static/images/invador4.png,1,80,2,40,left,70,2,1190,0.879517633,0,0,1,5220,760,6.86842105263158,13.7368421052632,10.5716975131644,21.1433950263289,58.8566049736711,58.8566049736711,1,1,1,1,1,1,-1,1,1,1,1,1,1,2,0,1
2,201,-1,../static/images/invador4.png,1,80,2,40,left,70,2,1198,0.911679444,0,0,1,5300,764,6.93717277486911,13.8743455497382,10.8289112983191,21.6578225966383,58.3421774033617,58.3421774033617,1,1,1,1,1,1,1,1,-1,1,1,1,1,4,80,1
2,202,-1,../static/images/invador1.png,4,20,8,2.5,right,70,1,852,-0.479318872,0,0,1,5380,768,7.00520833333333,56.0416666666667,11.0739339193926,88.5914713551411,-68.5914713551411,68.5914713551411,0,-1,-1,-1,1,1,1,1,1,1,1,1,1,4,80,1
2,204,-1,../static/images/invador1.png,4,20,8,2.5,left,74,1,960,-0.045134426,0,0,1,5400,774,6.97674418604651,55.8139534883721,10.5357171595178,84.2857372761423,-64.2857372761423,64.2857372761423,0,-1,-1,-1,-1,1,-1,-1,1,1,1,-1,1,2,0,0
2,205,-1,../static/images/invador2.png,3,80,8,10,left,74,1,772,-0.800936979,0,0,1,5400,776,6.95876288659794,55.6701030927835,10.3330582927237,82.6644663417897,-2.66446634178969,2.66446634178969,0,1,-1,0,-1,-1,-1,1,-1,-1,0,-0,-0,4,20,-1
2,206,-1,../static/images/invador4.png,1,80,2,40,right,74,2,999,0.111654401,0,0,1,5400,778,6.94087403598972,13.8817480719794,10.1342976528532,20.2685953057064,59.7314046942936,59.7314046942936,1,1,1,1,1,-1,-1,-1,-1,1,0,0,-0,2,0,0
2,207,-1,../static/images/invador4.png,1,80,2,40,left,70,2,1190,0.879517633,0,0,1,5480,782,7.0076726342711,14.0153452685422,10.4122428831088,20.8244857662177,59.1755142337823,59.1755142337823,1,1,1,1,1,1,1,-1,-1,-1,1,1,1,2,0,1
2,208,-1,../static/images/invador4.png,1,80,2,40,left,70,2,1146,0.702627674,0,0,1,5560,786,7.07379134860051,14.147582697201,10.677014340794,21.3540286815879,58.6459713184121,58.6459713184121,1,1,1,1,1,1,1,1,1,-1,1,1,1,4,80,1
2,209,-1,../static/images/invador4.png,1,80,2,40,right,74,2,1207,0.947861481,0,0,1,5640,790,7.13924050632911,14.2784810126582,10.9292364233252,21.8584728466504,58.1415271533496,58.1415271533496,1,1,1,1,1,1,1,1,1,1,1,1,1,4,80,1
2,210,-1,../static/images/invador2.png,3,80,8,10,right,70,1,980,0.035270101,0,0,1,5720,794,7.20403022670025,57.632241813602,11.1695039335493,89.3560314683942,-9.35603146839425,9.35603146839425,0,1,-1,0,1,1,1,1,1,1,1,1,1,4,80,1
2,212,-1,../static/images/invador4.png,1,80,2,40,left,70,2,1311,1.365965021,0,0,1,5720,798,7.16791979949875,14.3358395989975,10.7439366284662,21.4878732569324,58.5121267430676,58.5121267430676,1,1,1,1,-1,-1,1,-1,1,1,0,-0,-0,2,0,-1
2,213,-1,../static/images/invador4.png,1,80,2,40,right,74,2,1226,1.024245782,0,0,1,5800,802,7.23192019950125,14.4638403990025,10.9929867947286,21.9859735894573,58.0140264105427,58.0140264105427,1,1,1,1,1,1,-1,-1,1,-1,1,1,1,2,0,1
2,215,-1,../static/images/invador4.png,1,80,2,40,right,74,2,1201,0.923740123,0,0,1,5900,810,7.28395061728395,14.5679012345679,10.8875234434692,21.7750468869384,58.2249531130616,58.2249531130616,1,1,1,1,-1,1,1,1,1,1,1,-1,1,4,80,0
2,216,-1,../static/images/invador4.png,1,80,2,40,right,74,2,1206,0.943841255,0,0,1,5980,814,7.34643734643735,14.6928746928747,11.1297680241735,22.259536048347,57.740463951653,57.740463951653,1,1,1,1,1,1,-1,1,1,1,1,1,1,4,20,1
2,217,-1,../static/images/invador1.png,4,20,8,2.5,right,70,1,864,-0.431076155,0,0,1,6060,818,7.40831295843521,59.2665036674817,11.3605309363142,90.8842474905133,-70.8842474905133,70.8842474905133,0,-1,-1,-1,1,1,1,1,-1,1,1,1,1,4,80,1
2,218,-1,../static/images/invador4.png,1,80,2,40,left,70,2,1210,0.95992216,0,0,1,6060,820,7.39024390243902,14.780487804878,11.1420064361901,22.2840128723801,57.7159871276199,57.7159871276199,1,1,1,1,-1,-1,1,1,1,1,0,-0,-0,4,80,-1
2,219,-1,../static/images/invador3.png,2,20,2,10,right,70,1,729,-0.973806712,0,0,1,6140,824,7.45145631067961,14.9029126213592,11.3721892842067,22.7443785684133,-2.74437856841333,2.74437856841333,0,-1,1,0,1,1,-1,-1,1,1,1,1,1,2,0,1
2,220,-1,../static/images/invador4.png,1,80,2,40,left,70,2,1128,0.6302636,0,0,1,6140,826,7.43341404358353,14.8668280871671,11.1534405309504,22.3068810619008,57.6931189380992,57.6931189380992,1,1,1,1,-1,1,1,1,-1,-1,0,-0,0,4,80,0
2,222,-1,../static/images/invador2.png,3,80,8,10,left,74,1,933,-0.153680537,0,0,1,6300,834,7.55395683453237,60.431654676259,11.6018380511133,92.8147044089062,-12.8147044089062,12.8147044089062,0,1,-1,0,1,1,1,1,-1,1,1,1,1,4,80,1
2,224,-1,../static/images/invador4.png,1,80,2,40,left,70,2,1240,1.080528951,0,0,1,6380,840,7.59523809523809,15.1904761904762,11.5976375215449,23.1952750430898,56.8047249569102,56.8047249569102,1,1,1,1,1,1,1,-1,1,1,1,1,1,2,0,1
2,226,-1,../static/images/invador4.png,1,80,2,40,right,74,2,1130,0.638304053,0,0,1,6540,848,7.7122641509434,15.4245283018868,12.0049257022984,24.0098514045968,55.9901485954032,55.9901485954032,1,1,1,1,1,1,1,1,1,1,1,1,1,4,80,1
2,229,-1,../static/images/invador1.png,4,20,8,2.5,right,70,1,957,-0.057195105,0,0,1,6620,856,7.73364485981308,61.8691588785047,11.7295993547245,93.8367948377963,-73.8367948377963,73.8367948377963,0,-1,-1,-1,1,-1,-1,1,1,1,0,0,-0,2,0,0
2,231,-1,../static/images/invador4.png,1,80,2,40,left,70,2,1309,1.357924569,0,0,1,6700,862,7.77262180974478,15.5452436194896,11.7170022602231,23.4340045204462,56.5659954795538,56.5659954795538,1,1,1,1,1,1,-1,-1,1,-1,1,1,1,2,0,1
2,233,-1,../static/images/invador1.png,4,20,8,2.5,right,70,1,806,-0.664249283,0,0,1,6860,870,7.88505747126437,63.0804597701149,12.1132435278734,96.9059482229868,-76.9059482229868,76.9059482229868,0,-1,-1,-1,1,1,1,1,1,1,1,1,1,4,80,1
2,234,-1,../static/images/invador4.png,1,80,2,40,right,74,2,1320,1.402147058,0,0,1,6860,872,7.86697247706422,15.7339449541284,11.8802402904676,23.7604805809351,56.2395194190649,56.2395194190649,1,1,1,1,-1,-1,1,1,1,1,0,-0,-0,4,80,-1
2,236,-1,../static/images/invador4.png,1,80,2,40,right,74,2,1283,1.253398684,0,0,1,7020,886,7.92325056433409,15.8465011286682,11.6102606242712,23.2205212485424,56.7794787514576,56.7794787514576,1,1,1,1,1,-1,1,1,-1,-1,1,1,-1,4,80,0
2,237,-1,../static/images/invador3.png,2,20,2,10,right,70,1,911,-0.242125517,0,0,1,7100,890,7.97752808988764,15.9550561797753,11.8182496243369,23.6364992486738,-3.63649924867379,3.63649924867379,0,-1,1,0,1,1,1,-1,1,1,1,1,1,10,80,1
2,238,-1,../static/images/invador3.png,2,20,2,10,left,74,1,767,-0.821038111,0,0,1,7100,892,7.95964125560538,15.9192825112108,11.5909207163855,23.1818414327711,-3.18184143277108,3.18184143277108,0,-1,1,0,-1,1,1,1,1,-1,0,-0,0,4,80,0
2,240,-1,../static/images/invador4.png,1,80,2,40,left,70,2,1161,0.762931069,0,0,1,7180,898,7.99554565701559,15.9910913140312,11.5874376819221,23.1748753638441,56.8251246361559,56.8251246361559,1,1,1,1,1,1,-1,1,-1,1,1,1,1,2,0,1
2,242,-1,../static/images/invador4.png,1,80,2,40,right,74,2,1350,1.522753849,0,0,1,7260,904,8.03097345132743,16.0619469026549,11.5695977142529,23.1391954285058,56.8608045714942,56.8608045714942,1,1,1,1,-1,-1,1,1,1,1,0,-0,-0,4,80,-1
2,244,-1,../static/images/invador4.png,1,80,2,40,right,74,2,1365,1.583057244,0,0,1,7420,918,8.08278867102396,16.1655773420479,11.3443233642936,22.6886467285872,57.3113532714128,57.3113532714128,1,1,1,1,1,-1,1,1,-1,-1,1,1,-1,4,80,0
2,245,-1,../static/images/invador4.png,1,80,2,40,right,74,2,1148,0.710668127,0,0,1,7500,922,8.13449023861171,16.2689804772234,11.5649169950549,23.1298339901098,56.8701660098902,56.8701660098902,1,1,1,1,1,1,1,-1,1,1,1,1,1,10,80,1
2,247,-1,../static/images/invador4.png,1,80,2,40,left,70,2,1373,1.615219055,0,0,1,7580,928,8.16810344827586,16.3362068965517,11.5485571031541,23.0971142063083,56.9028857936918,56.9028857936918,1,1,1,1,-1,-1,1,1,1,1,0,-0,-0,4,80,-1
2,248,-1,../static/images/invador3.png,2,20,2,10,right,70,1,867,-0.419015476,0,0,1,7660,932,8.21888412017167,16.4377682403433,11.7594706655634,23.5189413311269,-3.51894133112689,3.51894133112689,0,-1,1,0,1,1,-1,-1,1,1,1,1,1,2,0,1
2,250,-1,../static/images/invador4.png,1,80,2,40,right,74,2,1344,1.498632491,0,0,1,7660,936,8.18376068376068,16.3675213675214,11.3114251417765,22.622850283553,57.377149716447,57.377149716447,1,1,1,1,1,1,-1,1,1,1,0,0,0,2,0,1
2,251,-1,../static/images/invador2.png,3,80,8,10,left,74,1,934,-0.149660311,0,0,1,7740,940,8.23404255319149,65.8723404255319,11.5335780498854,92.2686243990832,-12.2686243990832,12.2686243990832,0,1,-1,0,1,1,1,1,-1,1,1,1,1,2,0,1
2,252,-1,../static/images/invador1.png,4,20,8,2.5,left,74,1,692,-1.122555087,0,0,1,7740,942,8.21656050955414,65.7324840764331,11.3117249171294,90.4937993370348,-70.4937993370348,70.4937993370348,0,-1,-1,-1,1,-1,1,1,1,1,0,0,-0,4,80,0
2,255,-1,../static/images/invador4.png,1,80,2,40,right,74,2,1305,1.341843663,0,0,1,7760,950,8.16842105263158,16.3368421052632,10.5509480938869,21.1018961877738,58.8981038122262,58.8981038122262,1,1,1,1,1,1,-1,1,-1,-1,0,0,0,4,20,1
2,256,-1,../static/images/invador4.png,1,80,2,40,right,74,2,1322,1.410187511,0,0,1,7840,954,8.21802935010482,16.4360587002096,10.8091453394531,21.6182906789063,58.3817093210937,58.3817093210937,1,1,1,1,1,1,1,1,-1,1,1,1,1,2,0,1
2,257,-1,../static/images/invador4.png,1,80,2,40,right,74,2,1124,0.614182695,0,0,1,7920,958,8.26722338204593,16.5344467640919,11.0551048078562,22.1102096157125,57.8897903842875,57.8897903842875,1,1,1,1,1,1,1,1,1,1,1,1,1,4,80,1
2,260,-1,../static/images/invador3.png,2,20,2,10,right,70,1,937,-0.137599632,0,0,1,8160,976,8.36065573770492,16.7213114754098,11.1453420536137,22.2906841072274,-2.29068410722742,2.29068410722742,0,-1,1,0,1,1,1,-1,1,1,1,1,1,10,80,1
2,263,-1,../static/images/invador4.png,1,80,2,40,right,74,2,1326,1.426268417,0,0,1,8160,982,8.30957230142566,16.6191446028513,10.5144783377235,21.028956675447,58.971043324553,58.971043324553,1,1,1,1,1,1,1,-1,-1,1,0,0,0,2,0,1
2,264,-1,../static/images/invador1.png,4,20,8,2.5,left,74,1,787,-0.740633584,0,0,1,8240,986,8.35699797160243,66.8559837728195,10.7744041406496,86.1952331251967,-66.1952331251967,66.1952331251967,0,-1,-1,-1,1,1,1,1,1,-1,1,1,1,2,0,1
2,266,-1,../static/images/invador4.png,1,80,2,40,left,70,2,1270,1.201135741,0,0,1,8240,990,8.32323232323232,16.6464646464646,10.3638904632928,20.7277809265856,59.2722190734143,59.2722190734143,1,1,1,1,1,1,-1,-1,1,1,0,0,0,2,0,1
2,267,-1,../static/images/invador4.png,1,80,2,40,left,70,2,1052,0.324726398,0,0,1,8320,994,8.37022132796781,16.7404426559356,10.6309536810535,21.261907362107,58.738092637893,58.738092637893,1,1,1,1,1,1,1,1,-1,-1,1,1,1,2,0,1
2,268,-1,../static/images/invador2.png,3,80,8,10,left,74,1,869,-0.410975024,0,0,1,8400,998,8.41683366733467,67.3346693386774,10.8853589010875,87.0828712086996,-7.08287120869963,7.08287120869963,0,1,-1,0,1,1,1,1,1,1,1,1,1,4,80,1
2,270,-1,../static/images/invador4.png,1,80,2,40,left,70,2,1190,0.879517633,0,0,1,8400,1002,8.38323353293413,16.7664670658683,10.470617755916,20.9412355118319,59.0587644881681,59.0587644881681,1,1,1,1,1,1,1,-1,1,1,0,0,0,2,0,1
2,272,-1,../static/images/invador1.png,4,20,8,2.5,right,70,1,910,-0.246145743,0,0,1,8500,1010,8.41584158415842,67.3267326732673,10.4134983749404,83.307986999523,-63.307986999523,63.307986999523,0,-1,-1,-1,-1,1,1,1,1,1,1,-1,1,4,80,0
2,273,-1,../static/images/invador4.png,1,80,2,40,right,74,2,1213,0.971982839,0,0,1,8500,1012,8.39920948616601,16.798418972332,10.2131904368974,20.4263808737947,59.5736191262053,59.5736191262053,1,1,1,1,-1,-1,-1,1,1,1,0,-0,-0,4,20,-1
2,275,-1,../static/images/invador2.png,3,80,8,10,right,70,1,1410,1.76396743,0,0,1,8580,1018,8.42829076620825,67.426326129666,10.285666988399,82.2853359071923,-2.28533590719233,2.28533590719233,0,1,-1,0,1,1,1,1,-1,-1,0,0,0,4,80,1
2,276,-1,../static/images/invador1.png,4,20,8,2.5,left,74,1,800,-0.688370642,0,0,1,8580,1020,8.41176470588235,67.2941176470588,10.0878179398217,80.7025435185739,-60.7025435185739,60.7025435185739,0,-1,-1,-1,1,-1,1,1,1,1,0,0,-0,2,0,0
2,277,-1,../static/images/invador4.png,1,80,2,40,right,74,2,1067,0.385029793,0,0,1,8580,1022,8.39530332681018,16.7906066536204,9.89377459932999,19.78754919866,60.21245080134,60.21245080134,1,1,1,1,-1,-1,1,-1,1,1,0,-0,-0,2,0,-1
2,279,-1,../static/images/invador4.png,1,80,2,40,left,70,2,1240,1.080528951,0,0,1,8680,1030,8.42718446601942,16.8543689320388,9.89004063431213,19.7800812686243,60.2199187313757,60.2199187313757,1,1,1,1,-1,1,1,1,-1,-1,1,-1,1,4,80,0
2,280,-1,../static/images/invador2.png,3,80,8,10,right,70,1,1084,0.453373641,0,0,1,8760,1034,8.47195357833656,67.7756286266925,10.1795629166656,81.4365033333247,-1.43650333332469,1.43650333332469,0,1,-1,0,1,1,-1,1,1,1,1,1,1,4,20,1
2,282,-1,../static/images/invador1.png,4,20,8,2.5,left,74,1,876,-0.382833439,0,0,1,8760,1038,8.4393063583815,67.514450867052,9.79171318017399,78.3337054413919,-58.3337054413919,58.3337054413919,0,-1,-1,-1,1,1,1,-1,1,1,0,0,0,2,0,1
2,283,-1,../static/images/invador3.png,2,20,2,10,right,70,1,636,-1.347687762,0,0,1,8760,1040,8.42307692307692,16.8461538461538,9.60336553691233,19.2067310738247,0.793268926175337,0.793268926175337,0,-1,1,0,-1,-1,1,1,1,-1,0,-0,-0,2,0,-1
2,284,-1,../static/images/invador4.png,1,80,2,40,right,74,2,1090,0.477494999,0,0,1,8760,1042,8.40690978886756,16.8138195777351,9.41864083828451,18.837281676569,61.162718323431,61.162718323431,1,1,1,1,-1,1,-1,-1,1,1,0,-0,0,2,0,0
2,285,-1,../static/images/invador4.png,1,80,2,40,left,70,2,1417,1.792109014,0,0,1,8840,1046,8.45124282982792,16.9024856596558,9.73050606099691,19.4610121219938,60.5389878780062,60.5389878780062,1,1,1,1,1,1,-1,1,-1,-1,1,1,1,2,0,1
2,286,-1,../static/images/invador4.png,1,80,2,40,right,74,2,1233,1.052387366,0,0,1,8920,1050,8.4952380952381,16.9904761904762,10.0275898049522,20.0551796099044,59.9448203900956,59.9448203900956,1,1,1,1,1,1,1,1,-1,1,1,1,1,4,80,1
2,287,-1,../static/images/invador4.png,1,80,2,40,left,70,2,1206,0.943841255,0,0,1,9000,1054,8.53889943074004,17.0777988614801,10.3105926680316,20.6211853360631,59.3788146639369,59.3788146639369,1,1,1,1,1,1,1,1,1,1,1,1,1,4,80,1
2,288,-1,../static/images/invador4.png,1,80,2,40,right,74,2,1315,1.382045927,0,0,1,9080,1058,8.58223062381852,17.164461247637,10.5801820418721,21.1603640837442,58.8396359162558,58.8396359162558,1,1,1,1,1,1,1,1,1,1,1,1,1,4,80,1
2,289,-1,../static/images/invador3.png,2,20,2,10,left,74,1,834,-0.551682946,0,0,1,9160,1062,8.62523540489642,17.2504708097928,10.8369936857436,21.6739873714871,-1.67398737148713,1.67398737148713,0,-1,1,0,1,1,1,1,1,1,1,1,1,4,80,1
2,290,-1,../static/images/invador4.png,1,80,2,40,right,74,2,1193,0.891578313,0,0,1,9160,1064,8.60902255639098,17.218045112782,10.6285396406553,21.2570792813106,58.7429207186894,58.7429207186894,1,1,1,1,-1,1,1,1,1,1,0,-0,0,4,80,0
2,291,-1,../static/images/invador4.png,1,80,2,40,left,70,2,1056,0.340807303,0,0,1,9240,1068,8.65168539325843,17.3033707865169,10.8830592789837,21.7661185579673,58.2338814420327,58.2338814420327,1,1,1,1,1,1,-1,1,1,1,1,1,1,2,0,1
2,293,-1,../static/images/invador1.png,4,20,8,2.5,left,74,1,859,-0.451177287,0,0,1,9320,1074,8.67783985102421,69.4227188081937,10.9115115675026,87.2920925400209,-67.2920925400209,67.2920925400209,0,-1,-1,-1,1,-1,1,1,1,1,0,0,-0,4,80,0
2,296,-1,../static/images/invador1.png,4,20,8,2.5,right,70,1,769,-0.812997658,0,0,1,9420,1084,8.690036900369,69.520295202952,10.6231256863045,84.9850054904362,-64.9850054904362,64.9850054904362,0,-1,-1,-1,-1,1,1,1,-1,-1,1,-1,1,4,80,0
2,299,-1,../static/images/invador4.png,1,80,2,40,left,70,2,1211,0.963942387,0,0,1,9420,1090,8.64220183486239,17.2844036697248,10.0218211671078,20.0436423342157,59.9563576657843,59.9563576657843,1,1,1,1,1,1,1,-1,-1,-1,0,0,0,2,0,1
2,302,-1,../static/images/invador1.png,4,20,8,2.5,right,70,1,980,0.035270101,0,0,1,9660,1102,8.76588021778584,70.1270417422867,10.8320070333337,86.6560562666699,-66.6560562666699,66.6560562666699,0,-1,-1,-1,1,1,1,1,1,1,1,1,1,4,80,1
2,303,-1,../static/images/invador4.png,1,80,2,40,left,70,2,1140,0.678506316,0,0,1,9660,1104,8.75,17.5,10.6236489085622,21.2472978171243,58.7527021828757,58.7527021828757,1,1,1,1,-1,-1,1,1,1,1,0,-0,-0,4,80,-1
2,304,-1,../static/images/invador3.png,2,20,2,10,right,70,1,673,-1.198939387,0,0,1,9740,1108,8.79061371841155,17.5812274368231,10.8784003529634,21.7568007059268,-1.75680070592678,1.75680070592678,0,-1,1,0,1,1,-1,-1,1,1,1,1,1,2,0,1
2,305,-1,../static/images/invador4.png,1,80,2,40,left,70,2,1195,0.899618765,0,0,1,9740,1110,8.77477477477477,17.5495495495495,10.669149833546,21.338299667092,58.661700332908,58.661700332908,1,1,1,1,-1,1,1,1,-1,-1,0,-0,0,4,80,0
2,306,-1,../static/images/invador2.png,3,80,8,10,left,74,1,1214,0.976003066,0,0,1,9820,1114,8.81508078994614,70.5206463195691,10.9217446701978,87.3739573615824,-7.37395736158241,7.37395736158241,0,1,-1,0,1,1,-1,1,1,1,1,1,1,2,0,1
2,307,-1,../static/images/invador4.png,1,80,2,40,right,74,2,1248,1.112690762,0,0,1,9820,1116,8.79928315412186,17.5985663082437,10.7116604049537,21.4233208099075,58.5766791900925,58.5766791900925,1,1,1,1,1,-1,1,1,-1,1,0,0,-0,4,80,0
2,308,-1,../static/images/invador1.png,4,20,8,2.5,left,74,1,781,-0.764754942,0,0,1,9900,1120,8.83928571428571,70.7142857142857,10.9622403676714,87.697922941371,-67.697922941371,67.697922941371,0,-1,-1,-1,1,1,1,-1,1,1,1,1,1,2,0,1
2,309,-1,../static/images/invador2.png,3,80,8,10,right,70,1,1050,0.316685945,0,0,1,9900,1122,8.82352941176471,70.5882352941177,10.7513771509771,86.0110172078172,-6.01101720781719,6.01101720781719,0,1,-1,0,-1,-1,1,1,1,-1,0,-0,-0,4,80,-1
2,310,-1,../static/images/invador4.png,1,80,2,40,right,74,2,1034,0.252362323,0,0,1,9900,1124,8.80782918149466,17.6156583629893,10.5445699752621,21.0891399505242,58.9108600494758,58.9108600494758,1,1,1,1,1,-1,-1,-1,1,1,0,0,-0,2,0,0
2,311,-1,../static/images/invador3.png,2,20,2,10,left,74,1,799,-0.692390868,0,0,1,9980,1128,8.84751773049645,17.6950354609929,10.803069524574,21.6061390491479,-1.60613904914791,1.60613904914791,0,-1,1,0,1,1,1,-1,-1,-1,1,1,1,2,0,1
2,313,-1,../static/images/invador4.png,1,80,2,40,left,70,2,1194,0.895598539,0,0,1,10060,1134,8.87125220458554,17.7425044091711,10.8513646381305,21.702729276261,58.297270723739,58.297270723739,1,1,1,1,1,1,-1,1,1,1,1,1,1,2,0,1
2,314,-1,../static/images/invador4.png,1,80,2,40,right,74,2,1236,1.064448045,0,0,1,10140,1138,8.9103690685413,17.8207381370826,11.0953230380557,22.1906460761113,57.8093539238887,57.8093539238887,1,1,1,1,1,1,1,1,-1,1,1,1,1,4,80,1
2,315,-1,../static/images/invador3.png,2,20,2,10,right,70,1,705,-1.070292144,0,0,1,10220,1142,8.9492119089317,17.8984238178634,11.3277185395122,22.6554370790244,-2.6554370790244,2.6554370790244,0,-1,1,0,1,1,1,1,1,1,1,1,1,4,80,1
2,317,-1,../static/images/invador4.png,1,80,2,40,left,70,2,1297,1.309681852,0,0,1,10220,1146,8.91797556719023,17.8359511343805,10.8961231275512,21.7922462551025,58.2077537448975,58.2077537448975,1,1,1,1,1,1,-1,1,1,1,0,0,0,2,0,1
3,0,-1,../static/images/invador3.png,4,20,8,2.5,left,70,2,1029,0.52253978,0,0,-1,0,2,0,0,7.75913951786539,62.0731161429231,-42.0731161429231,42.0731161429231,1,-1,-1,-1,NaN,NaN,NaN,NaN,NaN,NaN,NaN,NaN,NaN,0,0,NaN
3,2,-1,../static/images/invador4.png,2,20,2,10,right,74,2,1461,2.39375985,0,0,-1,20,14,1.42857142857143,2.85714285714286,7.70285873635619,15.4057174727124,4.59428252728763,4.59428252728763,1,-1,1,0,1,1,-1,-1,NaN,NaN,0,0,0,10,20,1
3,3,-1,../static/images/invador2.png,1,80,2,40,left,70,2,1354,1.930286361,0,0,-1,40,18,2.22222222222222,4.44444444444444,7.68993315571643,15.3798663114329,64.6201336885671,64.6201336885671,1,1,1,1,-1,1,1,1,-1,-1,1,-1,1,2,0,0
3,4,-1,../static/images/invador2.png,1,80,2,40,right,74,2,1059,0.652485618,0,0,-1,120,22,5.45454545454545,10.9090909090909,7.71894108954855,15.4378821790971,64.5621178209029,64.5621178209029,1,1,1,1,1,1,-1,1,1,1,1,1,1,4,20,1
3,5,-1,../static/images/invador2.png,1,80,2,40,right,74,2,900,-0.036227325,0,0,-1,200,26,7.69230769230769,15.3846153846154,7.74784776534829,15.4956955306966,64.5043044693034,64.5043044693034,1,1,1,1,1,1,1,1,-1,1,1,1,1,4,80,1
3,6,-1,../static/images/invador1.png,3,80,8,10,left,70,2,1025,0.505213668,0,0,-1,280,30,9.33333333333333,74.6666666666667,7.77665353657719,62.2132282926175,17.7867717073825,17.7867717073825,1,1,-1,0,1,1,1,1,1,1,1,1,1,4,80,1
3,8,-1,../static/images/invador2.png,1,80,2,40,left,70,2,832,-0.330771225,0,0,-1,360,42,8.57142857142857,17.1428571428571,7.76204409032363,15.5240881806473,64.4759118193527,64.4759118193527,1,1,1,1,1,1,1,-1,1,1,0,0,0,10,80,1
3,9,-1,../static/images/invador1.png,3,80,8,10,right,70,1,1213,1.319540921,0,0,-1,440,46,9.56521739130435,76.5217391304348,7.79080030642246,62.3264024513797,17.6735975486203,17.6735975486203,0,1,-1,0,1,1,1,1,1,-1,1,1,1,2,0,1
3,12,-1,../static/images/invador2.png,1,80,2,40,right,74,2,818,-0.391412616,0,0,-1,540,62,8.70967741935484,17.4193548387097,7.76310572375669,15.5262114475134,64.4737885524866,64.4737885524866,1,1,1,1,1,1,-1,-1,1,-1,1,1,1,10,20,1
3,15,-1,../static/images/invador3.png,4,20,8,2.5,right,70,1,1166,1.115959108,0,0,-1,620,78,7.94871794871795,63.5897435897436,7.72673994601738,61.813919568139,-41.813919568139,41.813919568139,0,-1,-1,-1,1,-1,-1,1,1,1,NaN,NaN,NaN,2,0,0
3,16,-1,../static/images/invador2.png,1,80,2,40,left,70,2,824,-0.365423448,0,0,-1,620,80,7.75,15.5,7.71593993042633,15.4318798608527,64.5681201391473,64.5681201391473,1,1,1,1,-1,-1,1,-1,-1,1,0,-0,-0,10,0,-1
3,17,-1,../static/images/invador2.png,1,80,2,40,right,74,2,1047,0.600507283,0,0,-1,700,84,8.33333333333333,16.6666666666667,7.74485708237612,15.4897141647522,64.5102858352478,64.5102858352478,1,1,1,1,1,1,-1,-1,1,-1,1,1,1,2,0,1
3,18,-1,../static/images/invador2.png,1,80,2,40,left,70,2,775,-0.577668317,0,0,-1,780,88,8.86363636363636,17.7272727272727,7.77367329318597,15.5473465863719,64.4526534136281,64.4526534136281,1,1,1,1,1,1,1,1,-1,-1,1,1,1,4,80,1
3,19,-1,../static/images/invador2.png,1,80,2,40,left,70,2,720,-0.815902354,0,0,-1,860,92,9.34782608695652,18.695652173913,7.80238891521124,15.6047778304225,64.3952221695775,64.3952221695775,1,1,1,1,1,1,1,1,1,1,1,1,1,4,80,1
3,20,-1,../static/images/invador4.png,2,20,2,10,right,70,1,1236,1.419166064,0,0,-1,940,96,9.79166666666667,19.5833333333333,7.83100429957732,15.6620085991546,4.33799140084535,4.33799140084535,0,-1,1,0,1,1,1,1,1,1,1,1,1,4,80,1
3,21,-1,../static/images/invador2.png,1,80,2,40,left,70,2,945,0.158691433,0,0,-1,940,98,9.59183673469388,19.1836734693878,7.82005854896065,15.6401170979213,64.3598829020787,64.3598829020787,1,1,1,1,-1,1,1,1,1,1,0,-0,0,4,80,0
3,22,-1,../static/images/invador3.png,4,20,8,2.5,left,74,1,990,0.35361019,0,0,-1,1020,102,10,80,7.84861225391321,62.7888980313057,-42.7888980313057,42.7888980313057,0,-1,-1,-1,1,1,-1,1,1,1,1,1,1,2,0,1
3,23,-1,../static/images/invador4.png,2,20,2,10,left,74,1,223,-2.968671741,0,0,-1,1020,104,9.80769230769231,19.6153846153846,7.8376418918585,15.675283783717,4.324716216283,4.324716216283,0,-1,1,0,-1,-1,1,1,-1,1,0,-0,-0,4,80,-1
3,24,-1,../static/images/invador2.png,1,80,2,40,right,74,2,777,-0.569005261,0,0,-1,1020,106,9.62264150943396,19.2452830188679,7.82668686357742,15.6533737271548,64.3466262728452,64.3466262728452,1,1,1,1,-1,1,-1,-1,1,1,0,-0,0,2,0,0
3,25,-1,../static/images/invador2.png,1,80,2,40,right,74,2,771,-0.594994429,0,0,-1,1100,110,10,20,7.85521743106352,15.710434862127,64.289565137873,64.289565137873,1,1,1,1,1,1,-1,1,-1,-1,1,1,1,2,0,1
3,28,-1,../static/images/invador3.png,4,20,8,2.5,right,70,1,953,0.193343656,0,0,-1,1260,134,9.40298507462687,75.2238805970149,7.82417250925274,62.593380074022,-42.593380074022,42.593380074022,0,-1,-1,-1,1,1,1,-1,1,1,NaN,NaN,NaN,10,80,1
3,29,-1,../static/images/invador2.png,1,80,2,40,right,74,2,811,-0.421733311,0,0,-1,1260,136,9.26470588235294,18.5294117647059,7.8132363077399,15.6264726154798,64.3735273845202,64.3735273845202,1,1,1,1,-1,-1,1,1,1,-1,0,-0,-0,10,0,-1
3,30,-1,../static/images/invador4.png,2,20,2,10,left,74,1,896,-0.053553436,0,0,-1,1340,140,9.57142857142857,19.1428571428571,7.84181382709877,15.6836276541975,4.31637234580247,4.31637234580247,0,-1,1,0,1,1,-1,-1,1,1,1,1,1,2,0,1
3,31,-1,../static/images/invador1.png,3,80,8,10,right,70,1,841,-0.291787473,0,0,-1,1340,142,9.43661971830986,75.4929577464789,7.8308529675142,62.6468237401136,17.3531762598864,17.3531762598864,0,1,-1,0,-1,1,1,1,-1,-1,0,-0,0,4,80,0
3,32,-1,../static/images/invador2.png,1,80,2,40,left,70,2,836,-0.313445113,0,0,-1,1340,144,9.30555555555556,18.6111111111111,7.81990742842122,15.6398148568424,64.3601851431576,64.3601851431576,1,1,1,1,1,-1,-1,1,1,1,0,0,-0,2,0,0
3,36,-1,../static/images/invador2.png,1,80,2,40,right,74,2,890,-0.079542604,0,0,-1,1500,156,9.61538461538461,19.2307692307692,7.85491176054776,15.7098235210955,64.2901764789045,64.2901764789045,1,1,1,1,1,1,1,1,1,1,0,0,0,2,0,1
3,37,-1,../static/images/invador2.png,1,80,2,40,left,70,2,666,-1.049804863,0,0,-1,1580,160,9.875,19.75,7.88334380334927,15.7666876066985,64.2333123933015,64.2333123933015,1,1,1,1,1,1,1,1,1,1,1,1,1,2,0,1
3,38,-1,../static/images/invador2.png,1,80,2,40,left,70,2,600,-1.335685707,0,0,-1,1660,164,10.1219512195122,20.2439024390244,7.91167659838196,15.8233531967639,64.1766468032361,64.1766468032361,1,1,1,1,1,1,1,1,1,1,1,1,1,4,80,1
3,40,-1,../static/images/invador3.png,4,20,8,2.5,left,74,1,926,0.076392402,0,0,-1,1820,178,10.2247191011236,81.7977528089888,7.93491447996418,63.4793158397134,-43.4793158397134,43.4793158397134,0,-1,-1,-1,1,-1,1,1,1,1,1,1,-1,4,80,0
3,41,-1,../static/images/invador4.png,2,20,2,10,right,74,2,741,-0.724940267,0,0,-1,1820,180,10.1111111111111,20.2222222222222,7.92382348936582,15.8476469787316,4.15235302126837,4.15235302126837,1,-1,1,0,-1,-1,1,-1,1,1,0,-0,-0,10,80,-1
3,42,-1,../static/images/invador2.png,1,80,2,40,right,74,2,934,0.111044625,0,0,-1,1840,184,10,20,7.91012658677513,15.8202531735503,64.1797468264497,64.1797468264497,1,1,1,1,-1,1,-1,-1,1,-1,1,-1,1,2,0,0
3,44,-1,../static/images/invador2.png,1,80,2,40,right,74,2,1249,1.475475927,0,0,-1,1940,198,9.7979797979798,19.5959595959596,7.89149332084571,15.7829866416914,64.2170133583086,64.2170133583086,1,1,1,1,-1,-1,1,1,-1,1,1,-1,-1,4,80,-1
3,45,-1,../static/images/invador2.png,1,80,2,40,right,74,2,757,-0.65563582,0,0,-1,2020,202,10,20,7.91979766834708,15.8395953366942,64.1604046633058,64.1604046633058,1,1,1,1,1,1,-1,-1,1,1,1,1,1,10,20,1
3,46,-1,../static/images/invador1.png,3,80,8,10,right,74,2,1467,2.419749018,0,0,-1,2100,206,10.1941747572816,81.5533980582524,7.94800321382578,63.5840257106063,16.4159742893937,16.4159742893937,1,1,-1,0,1,1,1,1,-1,-1,1,1,1,4,80,1
3,47,-1,../static/images/invador4.png,2,20,2,10,right,70,1,992,0.362273246,0,0,-1,2180,216,10.0925925925926,20.1851851851852,7.94294518343094,15.8858903668619,4.11410963313812,4.11410963313812,0,-1,1,0,1,-1,1,1,1,1,1,1,-1,4,80,0
3,48,-1,../static/images/invador2.png,1,80,2,40,left,70,2,1368,1.990927752,0,0,-1,2180,218,10,20,7.93184296795336,15.8636859359067,64.1363140640933,64.1363140640933,1,1,1,1,-1,1,1,-1,1,1,0,-0,0,10,80,0
3,51,-1,../static/images/invador2.png,1,80,2,40,left,70,2,1273,1.579432598,0,0,-1,2260,226,10,20,7.93776989267494,15.8755397853499,64.1244602146501,64.1244602146501,1,1,1,1,1,1,1,1,1,1,0,0,0,2,0,1
3,52,-1,../static/images/invador2.png,1,80,2,40,right,74,2,1096,0.812752152,0,0,-1,2340,230,10.1739130434783,20.3478260869565,7.96591270248679,15.9318254049736,64.0681745950264,64.0681745950264,1,1,1,1,1,1,1,1,1,1,1,1,1,2,0,1
3,55,-1,../static/images/invador3.png,4,20,8,2.5,right,70,1,1008,0.431577693,0,0,-1,2420,246,9.83739837398374,78.6991869918699,7.92714999964591,63.4171999971673,-43.4171999971673,43.4171999971673,0,-1,-1,-1,-1,1,1,-1,1,1,NaN,NaN,NaN,2,0,0
3,57,-1,../static/images/invador2.png,1,80,2,40,left,70,2,857,-0.222483026,0,0,-1,2420,250,9.68,19.36,7.90500521119546,15.8100104223909,64.1899895776091,64.1899895776091,1,1,1,1,-1,1,-1,-1,-1,1,0,-0,0,2,0,0
3,58,-1,../static/images/invador2.png,1,80,2,40,left,70,2,960,0.223664352,0,0,-1,2500,254,9.84251968503937,19.6850393700787,7.93326239272359,15.8665247854472,64.1334752145528,64.1334752145528,1,1,1,1,1,1,-1,1,-1,-1,1,1,1,2,0,1
3,59,-1,../static/images/invador2.png,1,80,2,40,right,74,2,766,-0.616652069,0,0,-1,2580,258,10,20,7.96142093687139,15.9228418737428,64.0771581262572,64.0771581262572,1,1,1,1,1,1,1,1,-1,1,1,1,1,4,80,1
3,60,-1,../static/images/invador1.png,3,80,8,10,right,70,1,865,-0.187830803,0,0,-1,2660,262,10.1526717557252,81.2213740458015,7.98948118795247,63.9158495036198,16.0841504963802,16.0841504963802,0,1,-1,0,1,1,1,1,1,1,1,1,1,4,80,1
3,61,-1,../static/images/invador3.png,4,20,8,2.5,left,74,1,895,-0.057884964,0,0,-1,2660,264,10.0757575757576,80.6060606060606,7.97831392698638,63.8265114158911,-43.8265114158911,43.8265114158911,0,-1,-1,-1,1,-1,1,1,1,1,0,0,-0,4,80,0
3,64,-1,../static/images/invador2.png,1,80,2,40,right,74,2,1263,1.536117318,0,0,-1,2660,278,9.56834532374101,19.136690647482,7.9005789322513,15.8011578645026,64.1988421354974,64.1988421354974,1,1,1,1,-1,1,1,1,-1,-1,0,-0,0,10,0,0
3,66,-1,../static/images/invador3.png,4,20,8,2.5,right,70,1,938,0.128370737,0,0,-1,2740,284,9.64788732394366,77.1830985915493,7.91776904841111,63.3421523872888,-43.3421523872888,43.3421523872888,0,-1,-1,-1,1,1,1,1,-1,1,0,0,0,4,80,1
3,67,-1,../static/images/invador2.png,1,80,2,40,left,70,2,907,-0.005906629,0,0,-1,2740,286,9.58041958041958,19.1608391608392,7.90670202276166,15.8134040455233,64.1865959544767,64.1865959544767,1,1,1,1,-1,-1,1,1,1,1,0,-0,-0,2,0,-1
3,68,-1,../static/images/invador1.png,3,80,8,10,left,74,1,1054,0.630827978,0,0,-1,2820,290,9.72413793103448,77.7931034482759,7.93495328122745,63.4796262498196,16.5203737501804,16.5203737501804,0,1,-1,0,1,1,-1,-1,1,1,1,1,1,2,0,1
3,69,-1,../static/images/invador2.png,1,80,2,40,left,70,2,837,-0.309113585,0,0,-1,2820,292,9.65753424657534,19.3150684931507,7.9238622363948,15.8477244727896,64.1522755272104,64.1522755272104,1,1,1,1,1,-1,1,1,-1,-1,0,0,-0,4,80,0
3,70,-1,../static/images/invador4.png,2,20,2,10,left,74,1,979,0.305963383,0,0,-1,2900,296,9.7972972972973,19.5945945945946,7.95205359368053,15.9041071873611,4.09589281263894,4.09589281263894,0,-1,1,0,1,1,1,-1,1,1,1,1,1,2,0,1
3,72,-1,../static/images/invador1.png,3,80,8,10,right,70,1,1266,1.549111902,0,0,-1,2980,302,9.86754966887417,78.9403973509934,7.96907039560111,63.7525631648089,16.2474368351911,16.2474368351911,0,1,-1,0,1,1,-1,1,1,1,1,1,1,2,0,1
3,73,-1,../static/images/invador2.png,1,80,2,40,left,70,2,935,0.115376153,0,0,-1,2980,304,9.80263157894737,19.6052631578947,7.95793166372712,15.9158633274542,64.0841366725458,64.0841366725458,1,1,1,1,1,-1,1,1,-1,1,0,0,-0,4,80,0
3,74,-1,../static/images/invador2.png,1,80,2,40,right,74,2,728,-0.781250131,0,0,-1,3060,308,9.93506493506493,19.8701298701299,7.98600409481852,15.972008189637,64.027991810363,64.027991810363,1,1,1,1,1,1,1,-1,1,1,1,1,1,2,0,1
3,75,-1,../static/images/invador3.png,4,20,8,2.5,left,70,2,1450,2.346113043,0,0,-1,3140,312,10.0641025641026,80.5128205128205,8.01397853343817,64.1118282675053,-44.1118282675053,44.1118282675053,1,-1,-1,-1,1,1,1,1,1,-1,1,1,1,4,80,1
3,76,-1,../static/images/invador2.png,1,80,2,40,right,74,2,1238,1.42782912,0,0,-1,3160,322,9.81366459627329,19.6273291925466,7.96652650853045,15.9330530170609,64.0669469829391,64.0669469829391,1,1,1,1,-1,-1,1,1,1,1,1,-1,-1,4,80,-1
3,78,-1,../static/images/invador2.png,1,80,2,40,left,70,2,1053,0.62649645,0,0,-1,3240,336,9.64285714285714,19.2857142857143,7.93885304698151,15.877706093963,64.122293906037,64.122293906037,1,1,1,1,1,1,1,1,-1,-1,NaN,NaN,NaN,4,80,1
3,80,-1,../static/images/invador4.png,2,20,2,10,left,74,1,1130,0.960024102,0,0,-1,3400,350,9.71428571428571,19.4285714285714,7.96178852500014,15.9235770500003,4.07642294999972,4.07642294999972,0,-1,1,0,1,-1,1,1,1,1,1,1,-1,4,80,0
3,82,-1,../static/images/invador2.png,1,80,2,40,right,74,2,1297,1.683389268,0,0,-1,3420,362,9.4475138121547,18.8950276243094,7.90369318584083,15.8073863716817,64.1926136283183,64.1926136283183,1,1,1,1,-1,-1,-1,1,1,-1,1,-1,-1,2,0,-1
3,83,-1,../static/images/invador2.png,1,80,2,40,left,70,2,985,0.33195255,0,0,-1,3500,366,9.56284153005464,19.1256830601093,7.93195494725757,15.8639098945151,64.1360901054849,64.1360901054849,1,1,1,1,1,1,-1,-1,-1,1,1,1,1,10,20,1
3,84,-1,../static/images/invador2.png,1,80,2,40,right,74,2,781,-0.55167915,0,0,-1,3580,370,9.67567567567568,19.3513513513514,7.96011805530696,15.9202361106139,64.0797638893861,64.0797638893861,1,1,1,1,1,1,1,1,-1,-1,1,1,1,4,80,1
3,85,-1,../static/images/invador2.png,1,80,2,40,left,70,2,871,-0.161841635,0,0,-1,3660,374,9.78609625668449,19.572192513369,7.98818285435842,15.9763657087168,64.0236342912832,64.0236342912832,1,1,1,1,1,1,1,1,1,1,1,1,1,4,80,1
3,86,-1,../static/images/invador2.png,1,80,2,40,left,70,2,1065,0.678474786,0,0,-1,3740,378,9.89417989417989,19.7883597883598,8.01614968757931,16.0322993751586,63.9677006248414,63.9677006248414,1,1,1,1,1,1,1,1,1,1,1,1,1,4,80,1
3,87,-1,../static/images/invador2.png,1,80,2,40,right,74,2,870,-0.166173163,0,0,-1,3820,382,10,20,8.04401889693907,16.0880377938781,63.9119622061219,63.9119622061219,1,1,1,1,1,1,1,1,1,1,1,1,1,4,80,1
3,88,-1,../static/images/invador4.png,2,20,2,10,left,70,2,876,-0.140183995,0,0,-1,3900,386,10.1036269430052,20.2072538860104,8.07179082321345,16.1435816464269,3.85641835357311,3.85641835357311,1,-1,1,0,1,1,1,1,1,1,1,1,1,4,80,1
3,89,-1,../static/images/invador3.png,4,20,8,2.5,right,70,1,1084,0.760773817,0,0,-1,3920,390,10.0512820512821,80.4102564102564,8.05757741085791,64.4606192868633,-44.4606192868633,44.4606192868633,0,-1,-1,-1,-1,1,1,1,1,1,1,-1,1,4,80,0
3,90,-1,../static/images/invador1.png,3,80,8,10,left,74,1,928,0.085055458,0,0,-1,3920,392,10,80,8.0463149687062,64.3705197496496,15.6294802503504,15.6294802503504,0,1,-1,0,-1,-1,-1,1,1,1,0,-0,-0,4,20,-1
3,92,-1,../static/images/invador2.png,1,80,2,40,left,70,2,1232,1.401839952,0,0,-1,3920,396,9.8989898989899,19.7979797979798,8.02383728848119,16.0476745769624,63.9523254230376,63.9523254230376,1,1,1,1,1,1,1,-1,-1,-1,0,0,0,2,0,1
3,93,-1,../static/images/invador2.png,1,80,2,40,right,74,2,955,0.202006712,0,0,-1,4000,400,10,20,8.05167966272248,16.103359325445,63.896640674555,63.896640674555,1,1,1,1,1,1,1,1,1,-1,1,1,1,2,0,1
3,94,-1,../static/images/invador3.png,4,20,8,2.5,left,74,1,881,-0.118526355,0,0,-1,4080,404,10.0990099009901,80.7920792079208,8.07942484755176,64.6353987804141,-44.6353987804141,44.6353987804141,0,-1,-1,-1,1,1,1,1,1,1,1,1,1,4,80,1
3,95,-1,../static/images/invador4.png,2,20,2,10,right,70,1,944,0.154359905,0,0,-1,4080,406,10.0492610837438,20.0985221674877,8.06813186824485,16.1362637364897,3.8637362635103,3.8637362635103,0,-1,1,0,-1,-1,1,1,1,1,0,-0,-0,4,80,-1
3,96,-1,../static/images/invador2.png,1,80,2,40,left,70,2,1063,0.66981173,0,0,-1,4080,408,10,20,8.05685467364836,16.1137093472967,63.8862906527033,63.8862906527033,1,1,1,1,-1,1,-1,-1,1,1,0,-0,0,2,0,0
3,97,-1,../static/images/invador1.png,3,80,8,10,right,70,1,835,-0.317776641,0,0,-1,4160,412,10.0970873786408,80.7766990291262,8.08458179406027,64.6766543524822,15.3233456475178,15.3233456475178,0,1,-1,0,1,1,-1,1,-1,-1,1,1,1,2,0,1
3,98,-1,../static/images/invador2.png,1,80,2,40,left,70,2,949,0.176017545,0,0,-1,4160,414,10.048309178744,20.0966183574879,8.07328160665485,16.1465632133097,63.8534367866903,63.8534367866903,1,1,1,1,1,-1,1,1,-1,1,0,0,-0,4,80,0
3,99,-1,../static/images/invador1.png,3,80,8,10,left,74,1,687,-0.958842776,0,0,-1,4240,418,10.1435406698565,81.1483253588517,8.10095138555033,64.8076110844027,15.1923889155973,15.1923889155973,0,1,-1,0,1,1,1,-1,1,1,1,1,1,2,0,1
3,100,-1,../static/images/invador2.png,1,80,2,40,right,74,2,1032,0.535534364,0,0,-1,4240,420,10.0952380952381,20.1904761904762,8.08962831762291,16.1792566352458,63.8207433647542,63.8207433647542,1,1,1,1,1,-1,1,1,1,-1,0,0,-0,4,80,0
3,102,-1,../static/images/invador2.png,1,80,2,40,left,70,2,1191,1.224247306,0,0,-1,4340,434,10,20,8.06899766182558,16.1379953236512,63.8620046763488,63.8620046763488,1,1,1,1,-1,-1,1,1,1,-1,1,-1,-1,4,80,-1
3,104,-1,../static/images/invador2.png,1,80,2,40,left,70,2,750,-0.685956516,0,0,-1,4420,440,10.0454545454545,20.0909090909091,8.08536529372798,16.170730587456,63.8292694125441,63.8292694125441,1,1,1,1,-1,1,1,1,-1,-1,0,-0,0,4,80,0
3,105,-1,../static/images/invador4.png,2,20,2,10,left,70,2,1212,1.315209393,0,0,-1,4500,444,10.1351351351351,20.2702702702703,8.11299289208127,16.2259857841625,3.77401421583746,3.77401421583746,1,-1,1,0,1,1,-1,1,1,1,1,1,1,2,0,1
3,106,-1,../static/images/invador1.png,3,80,8,10,right,70,1,796,-0.486706231,0,0,-1,4520,448,10.0892857142857,80.7142857142857,8.09863565561031,64.7890852448825,15.2109147551175,15.2109147551175,0,1,-1,0,-1,1,1,1,-1,1,1,-1,1,4,80,0
3,107,-1,../static/images/invador2.png,1,80,2,40,left,70,2,940,0.137033793,0,0,-1,4520,450,10.0444444444444,20.0888888888889,8.08731582448387,16.1746316489677,63.8253683510323,63.8253683510323,1,1,1,1,1,-1,-1,1,1,1,0,0,-0,4,20,0
3,108,-1,../static/images/invador2.png,1,80,2,40,right,74,2,1309,1.735367603,0,0,-1,4600,454,10.1321585903084,20.2643171806167,8.11493661411691,16.2298732282338,63.7701267717662,63.7701267717662,1,1,1,1,1,1,1,-1,-1,1,1,1,1,2,0,1
3,109,-1,../static/images/invador3.png,4,20,8,2.5,left,74,1,1199,1.25889953,0,0,-1,4680,458,10.2183406113537,81.7467248908297,8.14246098782364,65.1396879025891,-45.1396879025891,45.1396879025891,0,-1,-1,-1,1,1,1,1,1,-1,1,1,1,4,80,1
3,110,-1,../static/images/invador2.png,1,80,2,40,left,70,2,1202,1.271894114,0,0,-1,4680,460,10.1739130434783,20.3478260869565,8.13107990003857,16.2621598000771,63.7378401999229,63.7378401999229,1,1,1,1,-1,-1,1,1,1,1,0,-0,-0,4,80,-1
3,111,-1,../static/images/invador2.png,1,80,2,40,right,74,2,1454,2.363439155,0,0,-1,4760,464,10.2586206896552,20.5172413793103,8.15854792235611,16.3170958447122,63.6829041552878,63.6829041552878,1,1,1,1,1,1,-1,-1,1,1,1,1,1,2,0,1
3,112,-1,../static/images/invador2.png,1,80,2,40,right,74,2,1495,2.5410318,0,0,-1,4840,468,10.3418803418803,20.6837606837607,8.1859200620124,16.3718401240248,63.6281598759752,63.6281598759752,1,1,1,1,1,1,1,1,-1,-1,1,1,1,4,80,1
3,113,-1,../static/images/invador2.png,1,80,2,40,left,70,2,1482,2.484721937,0,0,-1,4920,472,10.4237288135593,20.8474576271186,8.21319665370516,16.4263933074103,63.5736066925897,63.5736066925897,1,1,1,1,1,1,1,1,1,1,1,1,1,4,80,1
3,114,-1,../static/images/invador2.png,1,80,2,40,right,74,2,1009,0.435909221,0,0,-1,5000,476,10.5042016806723,21.0084033613445,8.2403780309638,16.4807560619276,63.5192439380724,63.5192439380724,1,1,1,1,1,1,1,1,1,1,1,1,1,4,80,1
3,115,-1,../static/images/invador3.png,4,20,8,2.5,left,74,1,1125,0.938366462,0,0,-1,5080,480,10.5833333333333,84.6666666666667,8.26746452615347,66.1397162092277,-46.1397162092277,46.1397162092277,0,-1,-1,-1,1,1,1,1,1,1,1,1,1,4,80,1
3,117,-1,../static/images/invador1.png,3,80,8,10,right,70,1,1102,0.83874132,0,0,-1,5080,484,10.495867768595,83.9669421487603,8.24436905641195,65.9549524512956,14.0450475487044,14.0450475487044,0,1,-1,0,1,1,-1,-1,1,1,0,0,0,2,0,1
3,118,-1,../static/images/invador4.png,2,20,2,10,left,70,2,1316,1.765688299,0,0,-1,5080,486,10.4526748971193,20.9053497942387,8.23284552708784,16.4656910541757,3.53430894582431,3.53430894582431,1,-1,1,0,1,-1,1,1,-1,-1,0,0,-0,2,0,0
3,119,-1,../static/images/invador2.png,1,80,2,40,left,70,2,1387,2.073226783,0,0,-1,5100,490,10.4081632653061,20.8163265306122,8.21806992086788,16.4361398417358,63.5638601582642,63.5638601582642,1,1,1,1,-1,1,1,-1,1,1,1,-1,1,2,0,0
3,120,-1,../static/images/invador4.png,2,20,2,10,left,70,2,1040,0.570186587,0,0,-1,5180,494,10.4858299595142,20.9716599190283,8.24523428700649,16.490468574013,3.50953142598703,3.50953142598703,1,-1,1,0,1,1,-1,1,1,-1,1,1,1,4,20,1
3,121,-1,../static/images/invador2.png,1,80,2,40,left,70,2,1256,1.505796623,0,0,-1,5200,498,10.4417670682731,20.8835341365462,8.23041543532615,16.4608308706523,63.5391691293477,63.5391691293477,1,1,1,1,-1,1,1,1,-1,1,1,-1,1,4,80,0
3,125,-1,../static/images/invador2.png,1,80,2,40,right,74,2,1044,0.587512699,0,0,-1,5380,532,10.1127819548872,20.2255639097744,8.14401029458795,16.2880205891759,63.7119794108241,63.7119794108241,1,1,1,1,1,1,1,-1,-1,-1,NaN,NaN,NaN,10,80,1
3,126,-1,../static/images/invador1.png,3,80,8,10,left,74,1,1302,1.705046908,0,0,-1,5460,536,10.1865671641791,81.4925373134328,8.17143318076041,65.3714654460833,14.6285345539167,14.6285345539167,0,1,-1,0,1,1,1,1,1,-1,1,1,1,10,0,1
3,127,-1,../static/images/invador2.png,1,80,2,40,left,70,2,933,0.106713097,0,0,-1,5460,538,10.1486988847584,20.2973977695167,8.16001159722453,16.3200231944491,63.6799768055509,63.6799768055509,1,1,1,1,1,-1,1,1,1,1,0,0,-0,4,80,0
3,128,-1,../static/images/invador4.png,2,20,2,10,left,70,2,1118,0.908045767,0,0,-1,5540,542,10.2214022140221,20.4428044280443,8.18737862762905,16.3747572552581,3.6252427447419,3.6252427447419,1,-1,1,0,1,1,1,-1,1,1,1,1,1,2,0,1
3,129,-1,../static/images/invador2.png,1,80,2,40,left,70,2,1281,1.614084821,0,0,-1,5560,546,10.1831501831502,20.3663003663004,8.1727617327742,16.3455234655484,63.6544765344516,63.6544765344516,1,1,1,1,-1,1,1,1,1,-1,1,-1,1,4,80,0
3,131,-1,../static/images/invador2.png,1,80,2,40,left,70,2,1093,0.799757568,0,0,-1,5660,560,10.1071428571429,20.2142857142857,8.15120601714417,16.3024120342883,63.6975879657116,63.6975879657116,1,1,1,1,-1,-1,1,1,-1,1,1,-1,-1,4,80,-1
3,133,-1,../static/images/invador1.png,3,80,8,10,left,70,2,1123,0.929703406,0,0,-1,5740,566,10.1413427561837,81.13074204947,8.16717217898295,65.3373774318636,14.6626225681364,14.6626225681364,1,1,-1,0,1,1,1,1,-1,-1,0,0,0,4,80,1
3,134,-1,../static/images/invador3.png,4,20,8,2.5,left,74,1,962,0.232327408,0,0,-1,5820,576,10.1041666666667,80.8333333333333,8.16043455546112,65.2834764436889,-45.2834764436889,45.2834764436889,0,-1,-1,-1,1,-1,1,1,1,1,1,1,-1,2,0,0
3,135,-1,../static/images/invador2.png,1,80,2,40,right,74,2,1185,1.198258139,0,0,-1,5820,578,10.0692041522491,20.1384083044983,8.14902834520369,16.2980566904074,63.7019433095926,63.7019433095926,1,1,1,1,-1,-1,1,-1,1,1,0,-0,-0,10,80,-1
3,137,-1,../static/images/invador4.png,2,20,2,10,left,70,2,1089,0.782431456,0,0,-1,5900,584,10.1027397260274,20.2054794520548,8.16500514185068,16.3300102837014,3.66998971629864,3.66998971629864,1,-1,1,0,1,1,1,1,-1,-1,0,0,0,4,80,1
3,138,-1,../static/images/invador2.png,1,80,2,40,left,70,2,1078,0.734784649,0,0,-1,5920,588,10.0680272108844,20.1360544217687,8.15046634615176,16.3009326923035,63.6990673076965,63.6990673076965,1,1,1,1,-1,1,1,1,1,1,1,-1,1,2,0,0
3,140,-1,../static/images/invador2.png,1,80,2,40,left,70,2,982,0.318957967,0,0,-1,6000,594,10.1010101010101,20.2020202020202,8.16643612022385,16.3328722404477,63.6671277595523,63.6671277595523,1,1,1,1,1,1,1,1,-1,1,0,0,0,4,80,1
3,141,-1,../static/images/invador2.png,1,80,2,40,right,74,2,948,0.171686017,0,0,-1,6080,598,10.1672240802676,20.3344481605351,8.19378072453758,16.3875614490752,63.6124385509248,63.6124385509248,1,1,1,1,1,1,1,1,1,1,1,1,1,2,0,1
3,142,1,../static/images/invador3.png,4,20,8,2.5,left,74,1,1298,1.687720796,0,0,-1,6160,602,10.2325581395349,81.8604651162791,8.22102987700543,65.7682390160434,-45.7682390160434,45.7682390160434,0,-1,-1,-1,1,1,1,1,1,1,1,1,1,4,80,1
3,143,1,../static/images/invador3.png,4,20,8,2.5,right,70,1,788,-0.521358454,0,0,-1,6160,604,10.1986754966887,81.5894039735099,8.20953896991312,65.6763117593049,-45.6763117593049,45.6763117593049,0,-1,-1,-1,-1,-1,1,1,1,1,0,-0,-0,4,80,-1
3,144,1,../static/images/invador3.png,4,20,8,2.5,left,74,1,819,-0.387081088,0,0,-1,6160,606,10.1650165016502,81.3201320132013,8.19806412418389,65.5845129934711,-45.5845129934711,45.5845129934711,0,-1,-1,-1,-1,-1,-1,-1,1,1,0,-0,-0,2,0,-1
3,146,1,../static/images/invador1.png,3,80,8,10,right,70,1,1003,0.409920053,0,0,-1,6180,612,10.0980392156863,80.7843137254902,8.17199112190833,65.3759289752667,14.6240710247333,14.6240710247333,0,1,-1,0,-1,1,-1,-1,-1,-1,1,-1,1,2,0,0
3,147,1,../static/images/invador2.png,1,80,2,40,right,74,2,843,-0.283124417,0,0,-1,6180,614,10.0651465798046,20.1302931596091,8.16056875851276,16.3211375170255,63.6788624829745,63.6788624829745,1,1,1,1,1,-1,-1,1,-1,-1,0,0,-0,4,20,0
3,148,1,../static/images/invador3.png,4,20,8,2.5,right,70,1,932,0.10238157,0,0,-1,6260,618,10.1294498381877,81.0355987055016,8.18793384403364,65.5034707522691,-45.5034707522691,45.5034707522691,0,-1,-1,-1,1,1,1,-1,-1,1,1,1,1,2,0,1
3,149,1,../static/images/invador1.png,3,80,8,10,right,70,1,1220,1.349861617,0,0,-1,6260,620,10.0967741935484,80.7741935483871,8.17648919677078,65.4119135741662,14.5880864258338,14.5880864258338,0,1,-1,0,-1,-1,1,1,1,-1,0,-0,-0,4,80,-1
3,150,1,../static/images/invador3.png,4,20,8,2.5,left,74,1,959,0.219332824,0,0,-1,6260,622,10.064308681672,80.5144694533762,8.16506054621153,65.3204843696923,-45.3204843696923,45.3204843696923,0,-1,-1,-1,1,-1,-1,-1,1,1,0,0,-0,2,0,0
3,151,1,../static/images/invador3.png,4,20,8,2.5,right,70,1,833,-0.326439697,0,0,-1,6260,624,10.0320512820513,80.2564102564103,8.15364786999659,65.2291829599727,-45.2291829599727,45.2291829599727,0,-1,-1,-1,-1,-1,1,-1,-1,-1,0,-0,-0,2,0,-1
3,153,1,../static/images/invador3.png,4,20,8,2.5,right,70,1,799,-0.473711647,0,0,-1,6260,628,9.96815286624204,79.7452229299363,8.13087035131855,65.0469628105484,-45.0469628105484,45.0469628105484,0,-1,-1,-1,-1,1,-1,-1,-1,-1,0,-0,0,2,0,0
3,154,1,../static/images/invador3.png,4,20,8,2.5,left,74,1,891,-0.075211076,0,0,-1,6260,630,9.93650793650794,79.4920634920635,8.1195054642929,64.9560437143432,-44.9560437143432,44.9560437143432,0,-1,-1,-1,-1,-1,-1,1,-1,-1,0,-0,-0,2,0,-1
3,155,1,../static/images/invador2.png,1,80,2,40,left,70,2,803,-0.456385535,0,0,-1,6260,632,9.90506329113924,19.8101265822785,8.10815646248636,16.2163129249727,63.7836870750273,63.7836870750273,1,1,1,1,-1,-1,-1,-1,-1,1,0,-0,-0,2,0,-1
3,156,1,../static/images/invador3.png,4,20,8,2.5,right,70,1,816,-0.400075672,0,0,-1,6340,636,9.9685534591195,79.748427672956,8.1357045036772,65.0856360294176,-45.0856360294176,45.0856360294176,0,-1,-1,-1,1,1,-1,-1,-1,-1,1,1,1,2,0,1
3,157,1,../static/images/invador3.png,4,20,8,2.5,right,70,1,848,-0.261466778,0,0,-1,6340,638,9.93730407523511,79.4984326018809,8.1243328597371,64.9946628778968,-44.9946628778968,44.9946628778968,0,-1,-1,-1,-1,-1,1,1,-1,-1,0,-0,-0,4,80,-1
3,158,1,../static/images/invador3.png,4,20,8,2.5,left,74,1,660,-1.075794031,0,0,-1,6340,640,9.90625,79.25,8.11297711046055,64.9038168836844,-44.9038168836844,44.9038168836844,0,-1,-1,-1,-1,-1,-1,-1,1,1,0,-0,-0,2,0,-1
3,159,1,../static/images/invador1.png,3,80,8,10,left,74,1,837,-0.309113585,0,0,-1,6340,642,9.87538940809969,79.0031152647975,8.10163723363087,64.813097869047,15.186902130953,15.186902130953,0,1,-1,0,-1,-1,-1,-1,-1,-1,0,-0,-0,2,0,-1
3,160,1,../static/images/invador4.png,2,20,2,10,left,70,2,729,-0.776918603,0,0,-1,6340,644,9.84472049689441,19.6894409937888,8.09031320706241,16.1806264141248,3.81937358587517,3.81937358587517,1,-1,1,0,1,-1,-1,-1,-1,-1,0,0,-0,2,0,0
3,163,1,../static/images/invador3.png,4,20,8,2.5,right,70,1,1045,0.591844227,0,0,-1,6360,660,9.63636363636364,77.0909090909091,8.00854192116433,64.0683353693147,-44.0683353693147,44.0683353693147,0,-1,-1,-1,-1,1,-1,-1,-1,1,NaN,NaN,NaN,2,0,0
3,164,1,../static/images/invador3.png,4,20,8,2.5,left,74,1,1005,0.418583109,0,0,-1,6360,662,9.60725075528701,76.8580060422961,7.99734801814515,63.9787841451612,-43.9787841451612,43.9787841451612,0,-1,-1,-1,-1,-1,-1,1,-1,-1,0,-0,-0,10,0,-1
3,165,1,../static/images/invador2.png,1,80,2,40,left,70,2,1120,0.916708822,0,0,-1,6360,664,9.57831325301205,19.1566265060241,7.98616976135296,15.9723395227059,64.0276604772941,64.0276604772941,1,1,1,1,-1,-1,-1,-1,-1,1,0,-0,-0,2,0,-1
3,166,1,../static/images/invador1.png,3,80,8,10,left,74,1,990,0.35361019,0,0,-1,6440,668,9.64071856287425,77.125748502994,8.01414362168022,64.1131489734418,15.8868510265582,15.8868510265582,0,1,-1,0,1,1,-1,-1,-1,-1,1,1,1,2,0,1
3,167,1,../static/images/invador3.png,4,20,8,2.5,left,74,1,831,-0.335102753,0,0,-1,6440,670,9.61194029850746,76.8955223880597,8.00294188890964,64.0235351112771,-44.0235351112771,44.0235351112771,0,-1,-1,-1,1,-1,1,1,-1,-1,0,0,-0,4,80,0
3,169,1,../static/images/invador3.png,4,20,8,2.5,right,70,1,1377,2.029911503,0,0,-1,6440,682,9.44281524926686,75.5425219941349,7.93605952798089,63.4884762238471,-43.4884762238471,43.4884762238471,0,-1,-1,-1,-1,1,-1,-1,1,-1,NaN,NaN,NaN,2,0,0
3,170,1,../static/images/invador1.png,3,80,8,10,right,70,1,899,-0.040558853,0,0,-1,6440,684,9.41520467836257,75.3216374269006,7.92496693689687,63.399735495175,16.600264504825,16.600264504825,0,1,-1,0,-1,-1,-1,1,-1,-1,0,-0,-0,10,0,-1
3,171,1,../static/images/invador3.png,4,20,8,2.5,right,70,1,789,-0.517026926,0,0,-1,6440,686,9.38775510204082,75.1020408163265,7.91388985043156,63.3111188034525,-43.3111188034525,43.3111188034525,0,-1,-1,-1,1,-1,-1,-1,-1,1,0,0,-0,2,0,0
3,172,1,../static/images/invador2.png,1,80,2,40,left,70,2,1082,0.752110761,0,0,-1,6440,688,9.36046511627907,18.7209302325581,7.90282824691343,15.8056564938269,64.1943435061731,64.1943435061731,1,1,1,1,-1,-1,1,-1,-1,-1,0,-0,-0,2,0,-1
3,174,1,../static/images/invador3.png,4,20,8,2.5,left,74,1,1147,1.033660077,0,0,-1,6520,702,9.28774928774929,74.3019943019943,7.87581951439893,63.0065561151914,-43.0065561151914,43.0065561151914,0,-1,-1,-1,-1,-1,1,1,-1,-1,NaN,NaN,NaN,4,80,-1
3,175,1,../static/images/invador3.png,4,20,8,2.5,left,74,1,1000,0.39692547,0,0,-1,6520,704,9.26136363636364,74.0909090909091,7.86481112351971,62.9184889881577,-42.9184889881577,42.9184889881577,0,-1,-1,-1,-1,-1,-1,-1,1,1,0,-0,-0,10,0,-1
3,176,1,../static/images/invador3.png,4,20,8,2.5,right,70,1,791,-0.50836387,0,0,-1,6520,706,9.23512747875354,73.8810198300283,7.85381811956874,62.8305449565499,-42.8305449565499,42.8305449565499,0,-1,-1,-1,-1,-1,-1,-1,-1,-1,0,-0,-0,2,0,-1
3,177,1,../static/images/invador4.png,2,20,2,10,right,74,2,766,-0.616652069,0,0,-1,6520,708,9.2090395480226,18.4180790960452,7.84284048103901,15.685680962078,4.31431903792198,4.31431903792198,1,-1,1,0,-1,-1,-1,-1,-1,-1,0,-0,-0,2,0,-1
3,178,1,../static/images/invador3.png,4,20,8,2.5,left,74,1,967,0.253985047,0,0,-1,6540,712,9.18539325842697,73.4831460674157,7.82942626594089,62.6354101275272,-42.6354101275272,42.6354101275272,0,-1,-1,-1,-1,1,-1,-1,-1,-1,1,-1,1,2,0,0
3,179,1,../static/images/invador2.png,1,80,2,40,right,74,2,963,0.236658936,0,0,-1,6540,714,9.15966386554622,18.3193277310924,7.81848272101355,15.6369654420271,64.3630345579729,64.3630345579729,1,1,1,1,-1,-1,-1,1,-1,-1,0,-0,-0,4,20,-1
3,180,1,../static/images/invador3.png,4,20,8,2.5,right,70,1,1325,1.80467205,0,0,-1,6620,718,9.22005571030641,73.7604456824512,7.84704192671078,62.7763354136862,-42.7763354136862,42.7763354136862,0,-1,-1,-1,1,1,-1,-1,-1,1,1,1,1,2,0,1
3,181,1,../static/images/invador1.png,3,80,8,10,left,74,1,956,0.20633824,0,0,-1,6620,720,9.19444444444444,73.5555555555556,7.83607375957377,62.6885900765902,17.3114099234098,17.3114099234098,0,1,-1,0,-1,-1,1,1,-1,-1,0,-0,-0,4,80,-1
3,183,1,../static/images/invador3.png,4,20,8,2.5,right,70,1,1030,0.526871308,0,0,-1,6620,724,9.14364640883978,73.1491712707182,7.81418339598841,62.5134671679073,-42.5134671679073,42.5134671679073,0,-1,-1,-1,1,-1,1,-1,-1,-1,0,0,-0,2,0,0
3,184,1,../static/images/invador4.png,2,20,2,10,left,70,2,1042,0.578849643,0,0,-1,6620,726,9.11845730027548,18.236914600551,7.80326115671317,15.6065223134263,4.39347768657367,4.39347768657367,1,-1,1,0,-1,-1,1,-1,1,-1,0,-0,-0,2,0,-1
3,186,1,../static/images/invador3.png,4,20,8,2.5,right,70,1,1221,1.354193145,0,0,-1,6640,732,9.07103825136612,72.568306010929,7.77909668499512,62.232773479961,-42.232773479961,42.232773479961,0,-1,-1,-1,-1,-1,-1,1,-1,-1,0,-0,-0,4,20,-1
3,187,1,../static/images/invador2.png,1,80,2,40,right,74,2,887,-0.092537188,0,0,-1,6640,734,9.04632152588556,18.0926430517711,7.76822348801047,15.5364469760209,64.4635530239791,64.4635530239791,1,1,1,1,-1,-1,-1,-1,-1,1,0,-0,-0,2,0,-1
3,188,1,../static/images/invador3.png,4,20,8,2.5,left,74,1,870,-0.166173163,0,0,-1,6720,738,9.10569105691057,72.8455284552846,7.79695813367776,62.375665069422,-42.375665069422,42.375665069422,0,-1,-1,-1,1,1,-1,-1,-1,-1,1,1,1,2,0,1
3,189,1,../static/images/invador3.png,4,20,8,2.5,left,74,1,942,0.145696849,0,0,-1,6720,740,9.08108108108108,72.6486486486486,7.7860599709345,62.288479767476,-42.288479767476,42.288479767476,0,-1,-1,-1,-1,-1,1,1,-1,-1,0,-0,-0,4,80,-1
3,190,1,../static/images/invador3.png,4,20,8,2.5,right,70,1,853,-0.239809138,0,0,-1,6720,742,9.05660377358491,72.4528301886792,7.77517704104862,62.201416328389,-42.201416328389,42.201416328389,0,-1,-1,-1,-1,-1,-1,-1,1,1,0,-0,-0,2,0,-1
3,191,1,../static/images/invador3.png,4,20,8,2.5,left,74,1,645,-1.14076695,0,0,-1,6720,744,9.03225806451613,72.258064516129,7.76430932272845,62.1144745818276,-42.1144745818276,42.1144745818276,0,-1,-1,-1,-1,-1,-1,-1,-1,-1,0,-0,-0,2,0,-1
3,192,1,../static/images/invador3.png,4,20,8,2.5,left,74,1,778,-0.564673733,0,0,-1,6720,746,9.00804289544236,72.0643431635389,7.7534567947121,62.0276543576968,-42.0276543576968,42.0276543576968,0,-1,-1,-1,-1,-1,-1,-1,-1,-1,0,-0,-0,2,0,-1
3,193,1,../static/images/invador1.png,3,80,8,10,right,70,1,904,-0.018901213,0,0,-1,6720,748,8.98395721925134,71.8716577540107,7.74261943576739,61.9409554861391,18.0590445138609,18.0590445138609,0,1,-1,0,-1,-1,-1,-1,-1,-1,0,-0,-0,2,0,-1
3,194,1,../static/images/invador2.png,1,80,2,40,right,74,2,1026,0.509545196,0,0,-1,6720,750,8.96,17.92,7.73179722469182,15.4635944493836,64.5364055506164,64.5364055506164,1,1,1,1,1,-1,-1,-1,-1,-1,0,0,-0,2,0,0
3,195,1,../static/images/invador4.png,2,20,2,10,left,70,2,1190,1.219915778,0,0,-1,6800,754,9.0185676392573,18.0371352785146,7.76065902356388,15.5213180471278,4.47868195287224,4.47868195287224,1,-1,1,0,1,1,1,-1,-1,-1,1,1,1,2,0,1
3,196,1,../static/images/invador3.png,4,20,8,2.5,right,70,1,1088,0.778099928,0,0,-1,6820,758,8.99736147757256,71.9788918205805,7.74753167938634,61.9802534350907,-41.9802534350907,41.9802534350907,0,-1,-1,-1,-1,1,1,1,1,-1,1,-1,1,4,80,0
3,197,1,../static/images/invador1.png,3,80,8,10,right,70,1,714,-0.841891522,0,0,-1,6820,760,8.97368421052632,71.7894736842105,7.7367026022446,61.8936208179568,18.1063791820432,18.1063791820432,0,1,-1,0,-1,-1,-1,1,1,1,0,-0,-0,4,20,-1
3,200,1,../static/images/invador3.png,4,20,8,2.5,right,70,1,1078,0.734784649,0,0,-1,6820,774,8.81136950904393,70.4909560723514,7.66132169575782,61.2905735660625,-41.2905735660625,41.2905735660625,0,-1,-1,-1,-1,1,-1,-1,1,-1,NaN,NaN,NaN,2,0,0
3,201,1,../static/images/invador2.png,1,80,2,40,left,70,2,958,0.215001296,0,0,-1,6820,776,8.78865979381443,17.5773195876289,7.65061311822831,15.3012262364566,64.6987737635434,64.6987737635434,1,1,1,1,-1,-1,-1,1,-1,-1,0,-0,-0,10,0,-1
3,202,1,../static/images/invador3.png,4,20,8,2.5,right,70,1,822,-0.374086504,0,0,-1,6900,780,8.84615384615385,70.7692307692308,7.67975830656647,61.4380664525318,-41.4380664525318,41.4380664525318,0,-1,-1,-1,1,1,-1,-1,-1,1,1,1,1,2,0,1
3,203,1,../static/images/invador2.png,1,80,2,40,left,70,2,1032,0.535534364,0,0,-1,6900,782,8.82352941176471,17.6470588235294,7.66902395934813,15.3380479186963,64.6619520813038,64.6619520813038,1,1,1,1,-1,-1,1,1,-1,-1,0,-0,-0,4,80,-1
3,204,1,../static/images/invador4.png,2,20,2,10,left,70,2,1190,1.219915778,0,0,-1,6980,786,8.88040712468193,17.7608142493639,7.69810488093923,15.3962097618785,4.60379023812155,4.60379023812155,1,-1,1,0,1,1,-1,-1,1,1,1,1,1,2,0,1
3,205,1,../static/images/invador3.png,4,20,8,2.5,right,70,1,767,-0.612320541,0,0,-1,7000,790,8.86075949367089,70.8860759493671,7.68519589458876,61.4815671567101,-41.4815671567101,41.4815671567101,0,-1,-1,-1,-1,1,1,1,-1,-1,1,-1,1,4,80,0
3,206,1,../static/images/invador3.png,4,20,8,2.5,right,70,1,768,-0.607989013,0,0,-1,7000,792,8.83838383838384,70.7070707070707,7.6744539470065,61.395631576052,-41.395631576052,41.395631576052,0,-1,-1,-1,-1,-1,-1,1,1,1,0,-0,-0,4,20,-1
3,207,1,../static/images/invador1.png,3,80,8,10,left,74,1,1070,0.700132425,0,0,-1,7000,794,8.81612090680101,70.5289672544081,7.66372701393259,61.3098161114607,18.6901838885393,18.6901838885393,0,1,-1,0,-1,-1,-1,-1,-1,1,0,-0,-0,2,0,-1
3,208,1,../static/images/invador3.png,4,20,8,2.5,left,74,1,801,-0.465048591,0,0,-1,7000,796,8.79396984924623,70.3517587939699,7.65301507438055,61.2241205950444,-41.2241205950444,41.2241205950444,0,-1,-1,-1,1,-1,-1,-1,-1,-1,0,0,-0,2,0,0
3,210,1,../static/images/invador2.png,1,80,2,40,right,74,2,889,-0.083874132,0,0,-1,7000,800,8.75,17.5,7.63163609204291,15.2632721840858,64.7367278159142,64.7367278159142,1,1,1,1,-1,-1,-1,-1,1,-1,0,-0,-0,2,0,-1
3,212,1,../static/images/invador3.png,4,20,8,2.5,right,70,1,953,0.193343656,0,0,-1,7080,806,8.78411910669975,70.272952853598,7.65013960875367,61.2011168700294,-41.2011168700294,41.2011168700294,0,-1,-1,-1,-1,1,1,1,-1,-1,0,-0,0,4,80,0
3,213,1,../static/images/invador3.png,4,20,8,2.5,left,74,1,774,-0.581999845,0,0,-1,7080,808,8.76237623762376,70.0990099009901,7.63944666093538,61.1155732874831,-41.1155732874831,41.1155732874831,0,-1,-1,-1,-1,-1,-1,1,1,1,0,-0,-0,2,0,-1
3,214,1,../static/images/invador3.png,4,20,8,2.5,right,70,1,631,-1.201408341,0,0,-1,7080,810,8.74074074074074,69.9259259259259,7.62876865913624,61.0301492730899,-41.0301492730899,41.0301492730899,0,-1,-1,-1,-1,-1,-1,-1,-1,1,0,-0,-0,2,0,-1
3,215,1,../static/images/invador3.png,4,20,8,2.5,right,70,1,738,-0.737934851,0,0,-1,7080,812,8.7192118226601,69.7536945812808,7.61810558246551,60.944844659724,-40.944844659724,40.944844659724,0,-1,-1,-1,-1,-1,-1,-1,-1,-1,0,-0,-0,2,0,-1
3,216,1,../static/images/invador1.png,3,80,8,10,left,74,1,845,-0.274461361,0,0,-1,7080,814,8.6977886977887,69.5823095823096,7.60745741006166,60.8596592804932,19.1403407195068,19.1403407195068,0,1,-1,0,-1,-1,-1,-1,-1,-1,0,-0,-0,2,0,-1
3,219,1,../static/images/invador1.png,3,80,8,10,right,70,1,1077,0.730453121,0,0,-1,7100,828,8.57487922705314,68.5990338164251,7.54203189091788,60.3362551273431,19.6637448726569,19.6637448726569,0,1,-1,0,-1,-1,1,1,1,-1,1,-1,-1,2,0,-1
3,220,1,../static/images/invador4.png,2,20,2,10,right,74,2,892,-0.070879548,0,0,-1,7100,830,8.55421686746988,17.1084337349398,7.53149005017015,15.0629801003403,4.93701989965971,4.93701989965971,1,-1,1,0,1,-1,-1,-1,1,1,0,0,-0,10,20,0
3,222,1,../static/images/invador3.png,4,20,8,2.5,right,70,1,966,0.24965352,0,0,-1,7120,836,8.51674641148325,68.133971291866,7.50865279103301,60.069222328264,-40.069222328264,40.069222328264,0,-1,-1,-1,-1,-1,-1,1,1,-1,0,-0,-0,4,20,-1
3,223,1,../static/images/invador3.png,4,20,8,2.5,right,70,1,642,-1.153761533,0,0,-1,7120,838,8.4964200477327,67.9713603818616,7.4981576057702,59.9852608461616,-39.9852608461616,39.9852608461616,0,-1,-1,-1,-1,-1,-1,-1,-1,1,0,-0,-0,2,0,-1
3,225,1,../static/images/invador1.png,3,80,8,10,right,70,1,963,0.236658936,0,0,-1,7120,842,8.45605700712589,67.6484560570071,7.47721122353253,59.8176897882603,20.1823102117397,20.1823102117397,0,1,-1,0,-1,-1,-1,-1,-1,-1,0,-0,-0,2,0,-1
3,226,1,../static/images/invador2.png,1,80,2,40,left,70,2,1062,0.665480202,0,0,-1,7120,844,8.43601895734597,16.8720379146919,7.4667599855776,14.9335199711552,65.0664800288448,65.0664800288448,1,1,1,1,1,-1,-1,-1,-1,-1,0,0,-0,2,0,0
3,227,1,../static/images/invador3.png,4,20,8,2.5,right,70,1,775,-0.577668317,0,0,-1,7200,848,8.49056603773585,67.9245283018868,7.49654695028519,59.9723756022815,-39.9723756022815,39.9723756022815,0,-1,-1,-1,1,1,1,-1,-1,-1,1,1,1,2,0,1
3,228,1,../static/images/invador4.png,2,20,2,10,right,74,2,1027,0.513876724,0,0,-1,7200,850,8.47058823529412,16.9411764705882,7.4860686859062,14.9721373718124,5.02786262818761,5.02786262818761,1,-1,1,0,-1,-1,1,1,1,-1,0,-0,-0,4,80,-1
3,230,1,../static/images/invador3.png,4,20,8,2.5,right,70,1,897,-0.049221908,0,0,-1,7240,864,8.37962962962963,67.037037037037,7.43058670232652,59.4446936186121,-39.4446936186121,39.4446936186121,0,-1,-1,-1,-1,-1,-1,1,-1,-1,1,-1,-1,4,20,-1
3,233,1,../static/images/invador2.png,1,80,2,40,left,70,2,1157,1.076975356,0,0,-1,7340,880,8.34090909090909,16.6818181818182,7.40725202969397,14.8145040593879,65.1854959406121,65.1854959406121,1,1,1,1,-1,1,1,-1,-1,-1,1,-1,1,10,80,0
3,235,1,../static/images/invador3.png,4,20,8,2.5,left,70,2,1126,0.94269799,0,0,-1,7440,894,8.32214765100671,66.5771812080537,7.39421445657708,59.1537156526167,-39.1537156526167,39.1537156526167,1,-1,-1,-1,-1,-1,1,1,-1,1,1,-1,-1,4,80,-1
3,236,1,../static/images/invador3.png,4,20,8,2.5,left,74,1,919,0.046071706,0,0,-1,7460,904,8.25221238938053,66.0176991150443,7.35151197037848,58.8120957630278,-38.8120957630278,38.8120957630278,0,-1,-1,-1,-1,-1,-1,-1,1,1,1,-1,-1,10,20,-1
3,237,1,../static/images/invador3.png,4,20,8,2.5,right,70,1,670,-1.032478751,0,0,-1,7460,906,8.23399558498896,65.8719646799117,7.34123642798252,58.7298914238601,-38.7298914238601,38.7298914238601,0,-1,-1,-1,-1,-1,-1,-1,-1,-1,0,-0,-0,10,20,-1
3,238,1,../static/images/invador4.png,2,20,2,10,right,74,2,700,-0.902532913,0,0,-1,7460,908,8.215859030837,16.431718061674,7.33097524817917,14.6619504963583,5.33804950364166,5.33804950364166,1,-1,1,0,-1,-1,-1,-1,-1,-1,0,-0,-0,2,0,-1
3,239,1,../static/images/invador3.png,4,20,8,2.5,left,74,1,755,-0.664298876,0,0,-1,7480,912,8.20175438596491,65.6140350877193,7.31934780171562,58.5547824137249,-38.5547824137249,38.5547824137249,0,-1,-1,-1,-1,1,-1,-1,-1,-1,1,-1,1,2,0,0
3,241,1,../static/images/invador2.png,1,80,2,40,right,74,2,1030,0.526871308,0,0,-1,7480,916,8.16593886462882,16.3318777292576,7.29890093131812,14.5978018626362,65.4021981373638,65.4021981373638,1,1,1,1,1,-1,-1,-1,-1,1,0,0,-0,2,0,0
3,242,1,../static/images/invador3.png,4,20,8,2.5,left,74,1,865,-0.187830803,0,0,-1,7560,920,8.21739130434783,65.7391304347826,7.3292738418449,58.6341907347592,-38.6341907347592,38.6341907347592,0,-1,-1,-1,1,1,1,-1,-1,-1,1,1,1,2,0,1
3,243,1,../static/images/invador3.png,4,20,8,2.5,right,70,1,679,-0.993495,0,0,-1,7560,922,8.19956616052061,65.5965292841649,7.31902938269187,58.552235061535,-38.552235061535,38.552235061535,0,-1,-1,-1,-1,-1,1,1,1,-1,0,-0,-0,4,80,-1
3,244,1,../static/images/invador3.png,4,20,8,2.5,left,74,1,686,-0.963174304,0,0,-1,7560,924,8.18181818181818,65.4545454545455,7.308799242685,58.47039394148,-38.47039394148,38.47039394148,0,-1,-1,-1,-1,-1,-1,-1,1,1,0,-0,-0,2,0,-1
3,247,1,../static/images/invador4.png,2,20,2,10,left,70,2,1057,0.643822562,0,0,-1,7660,946,8.09725158562368,16.1945031712474,7.25653317700405,14.5130663540081,5.4869336459919,5.4869336459919,1,-1,1,0,-1,-1,1,-1,-1,-1,1,-1,-1,10,80,-1
3,248,1,../static/images/invador3.png,4,20,8,2.5,right,70,1,937,0.124039209,0,0,-1,7680,950,8.08421052631579,64.6736842105263,7.24516558557524,57.9613246846019,-37.9613246846019,37.9613246846019,0,-1,-1,-1,-1,1,-1,-1,1,-1,1,-1,1,10,20,0
3,249,1,../static/images/invador3.png,4,20,8,2.5,right,70,1,794,-0.495369286,0,0,-1,7680,952,8.0672268907563,64.5378151260504,7.2350386883546,57.8803095068368,-37.8803095068368,37.8803095068368,0,-1,-1,-1,-1,-1,-1,1,-1,-1,0,-0,-0,4,20,-1
3,250,1,../static/images/invador2.png,1,80,2,40,left,70,2,901,-0.031895797,0,0,-1,7680,954,8.05031446540881,16.1006289308176,7.22492594595845,14.4498518919169,65.5501481080831,65.5501481080831,1,1,1,1,-1,-1,-1,-1,-1,1,0,-0,-0,2,0,-1
3,251,1,../static/images/invador3.png,4,20,8,2.5,right,70,1,877,-0.135852467,0,0,-1,7760,958,8.10020876826722,64.8016701461378,7.25555708106291,58.0444566485033,-38.0444566485033,38.0444566485033,0,-1,-1,-1,1,1,-1,-1,-1,-1,1,1,1,2,0,1
3,252,1,../static/images/invador3.png,4,20,8,2.5,left,74,1,701,-0.898201385,0,0,-1,7760,960,8.08333333333333,64.6666666666667,7.24541565917674,57.963325273414,-37.963325273414,37.963325273414,0,-1,-1,-1,-1,-1,1,1,-1,-1,0,-0,-0,4,80,-1
3,253,1,../static/images/invador3.png,4,20,8,2.5,right,70,1,687,-0.958842776,0,0,-1,7760,962,8.06652806652807,64.5322245322245,7.23528841241686,57.8823072993349,-37.8823072993349,37.8823072993349,0,-1,-1,-1,-1,-1,-1,-1,1,1,0,-0,-0,2,0,-1
3,254,1,../static/images/invador4.png,2,20,2,10,right,74,2,1175,1.154942859,0,0,-1,7760,964,8.04979253112033,16.0995850622407,7.22517532097004,14.4503506419401,5.54964935805991,5.54964935805991,1,-1,1,0,-1,-1,-1,-1,-1,-1,0,-0,-0,2,0,-1
3,255,1,../static/images/invador1.png,3,80,8,10,right,70,1,1105,0.851735903,0,0,-1,7780,968,8.03719008264463,64.297520661157,7.2139171904501,57.7113375236008,22.2886624763992,22.2886624763992,0,1,-1,0,-1,1,-1,-1,-1,-1,1,-1,1,2,0,0
3,256,1,../static/images/invador2.png,1,80,2,40,left,70,2,869,-0.170504691,0,0,-1,7780,970,8.02061855670103,16.0412371134021,7.20383397053152,14.407667941063,65.592332058937,65.592332058937,1,1,1,1,1,-1,-1,1,-1,-1,0,0,-0,4,20,0
3,257,1,../static/images/invador3.png,4,20,8,2.5,left,74,1,862,-0.200825386,0,0,-1,7860,974,8.06981519507187,64.5585215605749,7.23453873142205,57.8763098513764,-37.8763098513764,37.8763098513764,0,-1,-1,-1,1,1,1,-1,-1,1,1,1,1,2,0,1
3,258,1,../static/images/invador3.png,4,20,8,2.5,left,74,1,855,-0.231146082,0,0,-1,7860,976,8.05327868852459,64.4262295081967,7.22442668783843,57.7954135027074,-37.7954135027074,37.7954135027074,0,-1,-1,-1,-1,-1,1,1,1,-1,0,-0,-0,4,80,-1
3,259,1,../static/images/invador3.png,4,20,8,2.5,right,70,1,850,-0.252803722,0,0,-1,7860,978,8.03680981595092,64.2944785276074,7.2143287783177,57.7146302265416,-37.7146302265416,37.7146302265416,0,-1,-1,-1,-1,-1,-1,-1,1,1,0,-0,-0,2,0,-1
3,260,1,../static/images/invador2.png,1,80,2,40,left,70,2,1106,0.856067431,0,0,-1,7860,980,8.02040816326531,16.0408163265306,7.20424498310405,14.4084899662081,65.5915100337919,65.5915100337919,1,1,1,1,-1,-1,-1,-1,-1,-1,0,-0,-0,2,0,-1
3,262,1,../static/images/invador3.png,4,20,8,2.5,right,70,1,870,-0.166173163,0,0,-1,7960,994,8.00804828973843,64.0643863179074,7.19346635320769,57.5477308256615,-37.5477308256615,37.5477308256615,0,-1,-1,-1,-1,-1,1,1,-1,-1,1,-1,-1,4,80,-1
3,264,1,../static/images/invador4.png,2,20,2,10,right,74,2,1165,1.11162758,0,0,-1,7960,998,7.97595190380762,15.9519038076152,7.17337113731997,14.3467422746399,5.65325772536007,5.65325772536007,1,-1,1,0,1,-1,-1,-1,-1,-1,0,0,-0,2,0,0
3,265,1,../static/images/invador3.png,4,20,8,2.5,left,74,1,819,-0.387081088,0,0,-1,7980,1002,7.96407185628743,63.7125748502994,7.16229383973132,57.2983507178506,-37.2983507178506,37.2983507178506,0,-1,-1,-1,-1,1,1,-1,-1,-1,1,-1,1,2,0,0
3,266,1,../static/images/invador3.png,4,20,8,2.5,left,74,1,656,-1.093120142,0,0,-1,7980,1004,7.94820717131474,63.5856573705179,7.15228277611624,57.2182622089299,-37.2182622089299,37.2182622089299,0,-1,-1,-1,-1,-1,-1,1,1,-1,0,-0,-0,4,20,-1
3,270,1,../static/images/invador4.png,2,20,2,10,right,74,2,1139,0.999007853,0,0,-1,8020,1028,7.80155642023346,15.6031128404669,7.05120443919273,14.1024088783855,5.89759112161453,5.89759112161453,1,-1,1,0,-1,-1,1,1,-1,-1,1,-1,-1,2,0,-1
3,272,1,../static/images/invador3.png,4,20,8,2.5,right,70,1,922,0.05906629,0,0,-1,8120,1042,7.79270633397313,62.341650671785,7.04244976475422,56.3395981180338,-36.3395981180338,36.3395981180338,0,-1,-1,-1,1,-1,-1,1,-1,-1,1,1,-1,4,20,0
3,273,1,../static/images/invador4.png,2,20,2,10,left,70,2,996,0.379599358,0,0,-1,8120,1044,7.77777777777778,15.5555555555556,7.03260621264946,14.0652124252989,5.93478757470107,5.93478757470107,1,-1,1,0,-1,-1,1,-1,-1,1,0,-0,-0,10,80,-1
