subj,trial_index_actual,block,stimulus,stim_rank,reward_percent,delay_s,profitability,stim_left_right,key_press,approach_avoid,rt,rt_z,force_trial,missed,order_condition,reward_sum,delay_sum,Q_arithmetic,opp_cost_arithmetic,Q_estimate,opp_cost_estimate
2,0,1,../static/images/invador1.png,4,20,8,2.5,right,74,2,1253.0,1.132791893,0,0,2,0.0,2.0,0.0,0.0,7.62054084395504,60.96432675164032
2,1,1,../static/images/invador1.png,4,20,8,2.5,right,-1,0,NaN,NaN,0,1,2,20.0,12.0,1.6666666666666667,13.333333333333334,7.038016616878767,56.30413293503013
2,2,1,../static/images/invador3.png,2,20,2,10.0,right,74,2,1185.0,0.859416502,0,0,2,20.0,22.0,0.9090909090909091,1.8181818181818181,6.38666548213854,12.77333096427708
2,3,1,../static/images/invador4.png,1,80,2,40.0,left,70,2,1148.0,0.710668127,0,0,2,40.0,26.0,1.5384615384615385,3.076923076923077,6.273526797761372,12.547053595522744
2,4,1,../static/images/invador1.png,4,20,8,2.5,right,70,1,1156.0,0.742829938,2,0,2,120.0,30.0,4.0,32.0,6.73446101885188,53.87568815081504
2,5,1,../static/images/invador1.png,4,20,8,2.5,left,70,0,NaN,NaN,0,1,2,120.0,32.0,3.75,30.0,6.604920882391741,52.83936705913393
2,6,1,../static/images/invador2.png,3,80,8,10.0,right,74,2,1351.0,1.526774075,0,0,2,120.0,42.0,2.857142857142857,22.857142857142858,5.993651693100851,47.94921354480681
2,7,1,../static/images/invador1.png,4,20,8,2.5,left,74,1,1103.0,0.529757941,2,0,2,200.0,52.0,3.8461538461538463,30.76923076923077,6.144670328363158,49.15736262690526
2,8,1,../static/images/invador2.png,3,80,8,10.0,left,70,2,1306.0,1.34586389,2,0,2,200.0,54.0,3.7037037037037037,29.62962962962963,6.02647505919306,48.21180047354448
2,9,1,../static/images/invador3.png,2,20,2,10.0,left,74,1,1428.0,1.836331504,0,0,2,280.0,64.0,4.375,8.75,6.174168112041098,12.348336224082196
2,10,1,../static/images/invador1.png,4,20,8,2.5,left,74,1,1084.0,0.453373641,0,0,2,280.0,66.0,4.242424242424242,33.93939393939394,6.055405440830627,48.44324352664501
2,11,1,../static/images/invador1.png,4,20,8,2.5,left,74,1,1160.0,0.758910843,2,0,2,280.0,68.0,4.117647058823529,32.94117647058823,5.938927218604553,47.51141774883642
2,12,1,../static/images/invador4.png,1,80,2,40.0,left,70,2,1391.0,1.687583129,0,0,2,280.0,70.0,4.0,8.0,5.824689503044055,11.64937900608811
2,13,1,../static/images/invador1.png,4,20,8,2.5,left,70,2,1322.0,1.410187511,1,0,2,360.0,74.0,4.864864864864865,38.91891891891892,6.306897269416603,50.455178155332824
2,14,1,../static/images/invador4.png,1,80,2,40.0,left,74,1,1024.0,0.21216006,2,0,2,380.0,84.0,4.523809523809524,9.047619047619047,5.857468166034382,11.714936332068763
2,15,1,../static/images/invador2.png,3,80,8,10.0,left,70,2,1337.0,1.470490906,0,0,2,380.0,86.0,4.4186046511627906,35.348837209302324,5.7447973489615745,45.958378791692596
2,16,1,../static/images/invador1.png,4,20,8,2.5,left,74,1,1118.0,0.590061337,0,0,2,460.0,96.0,4.791666666666667,38.333333333333336,5.921029291971117,47.36823433576894
2,17,1,../static/images/invador1.png,4,20,8,2.5,left,74,1,933.0,-0.153680537,2,0,2,460.0,98.0,4.6938775510204085,37.55102040816327,5.807135850414427,46.45708680331541
2,18,1,../static/images/invador1.png,4,20,8,2.5,left,74,1,1043.0,0.288544361,0,0,2,460.0,100.0,4.6,36.8,5.695433196200608,45.563465569604865
2,19,1,../static/images/invador3.png,2,20,2,10.0,left,74,1,1159.0,0.754890617,0,0,2,460.0,102.0,4.509803921568627,9.019607843137255,5.585879188631163,11.171758377262327
2,20,1,../static/images/invador1.png,4,20,8,2.5,left,74,1,1033.0,0.248342097,0,0,2,460.0,104.0,4.423076923076923,35.38461538461539,5.4784324976013155,43.827459980810524
2,21,1,../static/images/invador1.png,4,20,8,2.5,left,74,1,977.0,0.023209422,1,0,2,460.0,106.0,4.339622641509434,34.716981132075475,5.373052588007909,42.984420704063275
2,22,1,../static/images/invador1.png,4,20,8,2.5,left,70,0,NaN,NaN,0,1,2,460.0,108.0,4.2592592592592595,34.074074074074076,5.269699704457222,42.15759763565777
2,23,1,../static/images/invador3.png,2,20,2,10.0,right,74,2,1387.0,1.671502224,1,0,2,460.0,118.0,3.8983050847457625,7.796610169491525,4.7820019525072315,9.564003905014463
2,24,1,../static/images/invador4.png,1,80,2,40.0,right,74,2,1044.0,0.292564587,0,0,2,480.0,122.0,3.9344262295081966,7.868852459016393,4.744919519831583,9.489839039663167
2,25,1,../static/images/invador1.png,4,20,8,2.5,left,74,1,1058.0,0.348847756,0,0,2,560.0,126.0,4.444444444444445,35.55555555555556,5.278305153779786,42.22644123023829
2,26,1,../static/images/invador2.png,3,80,8,10.0,left,70,2,1467.0,1.993120331,0,0,2,560.0,128.0,4.375,35.0,5.17677477622101,41.41419820976808
2,27,1,../static/images/invador1.png,4,20,8,2.5,left,74,1,872.0,-0.398914345,0,0,2,640.0,138.0,4.63768115942029,37.10144927536232,5.4105573638995095,43.284458911196076
2,28,1,../static/images/invador1.png,4,20,8,2.5,left,74,1,828.0,-0.575804304,0,0,2,640.0,140.0,4.571428571428571,36.57142857142857,5.306483060509386,42.45186448407509
2,29,1,../static/images/invador4.png,1,80,2,40.0,left,74,1,479.0,-1.978863299,2,0,2,640.0,142.0,4.507042253521127,9.014084507042254,5.2044106692879435,10.408821338575887
2,30,1,../static/images/invador1.png,4,20,8,2.5,left,74,1,841.0,-0.523541361,2,0,2,640.0,144.0,4.444444444444445,35.55555555555556,5.104301682628592,40.83441346102874
2,31,1,../static/images/invador1.png,4,20,8,2.5,left,74,1,974.0,0.011148743,0,0,2,640.0,146.0,4.383561643835616,35.06849315068493,5.0061183336344435,40.04894666907555
2,32,1,../static/images/invador1.png,4,20,8,2.5,right,70,1,935.0,-0.145640085,0,0,2,640.0,148.0,4.324324324324325,34.5945945945946,4.909823581870454,39.278588654963634
2,33,1,../static/images/invador3.png,2,20,2,10.0,right,70,1,1326.0,1.426268417,0,0,2,640.0,150.0,4.266666666666667,8.533333333333333,4.815381099389631,9.630762198779262
2,34,1,../static/images/invador2.png,3,80,8,10.0,right,70,1,749.0,-0.893402185,0,0,2,640.0,152.0,4.2105263157894735,33.68421052631579,4.722755257028033,37.78204205622426
2,35,1,../static/images/invador1.png,4,20,8,2.5,right,70,1,1001.0,0.119694854,0,0,2,640.0,154.0,4.1558441558441555,33.246753246753244,4.631911110963387,37.05528888770709
2,36,1,../static/images/invador2.png,3,80,8,10.0,left,74,1,1072.0,0.405130925,2,0,2,640.0,156.0,4.102564102564102,32.82051282051282,4.542814389532259,36.34251511625807
2,37,1,../static/images/invador1.png,4,20,8,2.5,left,74,1,1052.0,0.324726398,0,0,2,640.0,158.0,4.050632911392405,32.40506329113924,4.455431480300806,35.64345184240645
2,38,1,../static/images/invador1.png,4,20,8,2.5,right,74,2,1027.0,0.224220739,1,0,2,640.0,160.0,4.0,32.0,4.3697294173842165,34.95783533907373
2,39,1,../static/images/invador1.png,4,20,8,2.5,left,70,2,1047.0,0.304625266,1,0,2,660.0,170.0,3.8823529411764706,31.058823529411764,4.1165693780614605,32.932555024491684
2,40,1,../static/images/invador3.png,2,20,2,10.0,right,70,1,1271.0,1.205155968,0,0,2,680.0,180.0,3.7777777777777777,7.555555555555555,3.889058888891524,7.778117777783048
2,41,1,../static/images/invador4.png,1,80,2,40.0,left,70,2,925.0,-0.185842348,0,0,2,680.0,182.0,3.7362637362637363,7.472527472527473,3.8142512364664434,7.628502472932887
2,42,1,../static/images/invador2.png,3,80,8,10.0,right,74,2,1358.0,1.55491566,0,0,2,760.0,186.0,4.086021505376344,32.68817204301075,4.391747763385775,35.1339821070862
2,43,1,../static/images/invador1.png,4,20,8,2.5,right,70,1,1004.0,0.131755533,0,0,2,840.0,196.0,4.285714285714286,34.285714285714285,4.705067349837467,37.64053879869974
2,44,1,../static/images/invador1.png,4,20,8,2.5,left,74,1,798.0,-0.696411094,0,0,2,840.0,198.0,4.242424242424242,33.93939393939394,4.614563437965987,36.91650750372789
2,45,1,../static/images/invador4.png,1,80,2,40.0,left,70,2,1108.0,0.549859073,0,0,2,840.0,200.0,4.2,8.4,4.525800406182933,9.051600812365866
2,46,1,../static/images/invador1.png,4,20,8,2.5,right,70,1,805.0,-0.66826951,2,0,2,920.0,204.0,4.509803921568627,36.07843137254902,5.069571630725386,40.55657304580309
2,47,1,../static/images/invador3.png,2,20,2,10.0,right,70,1,1454.0,1.940857389,0,0,2,920.0,206.0,4.466019417475728,8.932038834951456,4.972056328609854,9.944112657219708
2,48,1,../static/images/invador1.png,4,20,8,2.5,left,74,1,818.0,-0.616006567,0,0,2,920.0,208.0,4.423076923076923,35.38461538461539,4.876416773567122,39.01133418853698
2,49,1,../static/images/invador1.png,4,20,8,2.5,left,74,1,999.0,0.111654401,0,0,2,920.0,210.0,4.380952380952381,35.04761904761905,4.782616884828277,38.26093507862622
2,50,1,../static/images/invador4.png,1,80,2,40.0,right,74,2,1125.0,0.618202921,0,0,2,920.0,212.0,4.339622641509434,8.679245283018869,4.690621275652884,9.381242551305768
2,51,1,../static/images/invador2.png,3,80,8,10.0,left,70,2,1417.0,1.792109014,0,0,2,1000.0,216.0,4.62962962962963,37.03703703703704,5.226580483967267,41.81264387173814
2,52,1,../static/images/invador1.png,4,20,8,2.5,right,70,1,1036.0,0.260402776,0,0,2,1080.0,226.0,4.778761061946903,38.230088495575224,5.45531688030312,43.64253504242496
2,53,1,../static/images/invador1.png,4,20,8,2.5,left,74,1,869.0,-0.410975024,0,0,2,1080.0,228.0,4.7368421052631575,37.89473684210526,5.350381609146373,42.803052873170984
2,54,1,../static/images/invador1.png,4,20,8,2.5,left,74,1,790.0,-0.728572905,0,0,2,1080.0,230.0,4.695652173913044,37.56521739130435,5.24746481122855,41.9797184898284
2,55,1,../static/images/invador3.png,2,20,2,10.0,right,70,1,1106.0,0.54181862,0,0,2,1080.0,232.0,4.655172413793103,9.310344827586206,5.146527660384041,10.293055320768081
2,56,1,../static/images/invador1.png,4,20,8,2.5,left,70,2,863.0,-0.435096382,1,0,2,1080.0,234.0,4.615384615384615,36.92307692307692,5.047532077284551,40.380256618276405
2,57,1,../static/images/invador1.png,4,20,8,2.5,left,74,1,901.0,-0.282327781,0,0,2,1100.0,244.0,4.508196721311475,36.0655737704918,4.725698745899838,37.805589967198706
2,58,1,../static/images/invador2.png,3,80,8,10.0,left,70,2,1369.0,1.599138149,0,0,2,1100.0,246.0,4.471544715447155,35.77235772357724,4.634797980612205,37.07838384489764
2,59,1,../static/images/invador1.png,4,20,8,2.5,right,70,1,819.0,-0.611986341,0,0,2,1180.0,256.0,4.609375,36.875,4.923492319125557,39.38793855300445
2,60,1,../static/images/invador1.png,4,20,8,2.5,right,70,1,750.0,-0.889381959,0,0,2,1180.0,258.0,4.573643410852713,36.58914728682171,4.828786912843659,38.630295302749275
2,61,1,../static/images/invador4.png,1,80,2,40.0,right,74,2,1400.0,1.723765166,0,0,2,1180.0,260.0,4.538461538461538,9.076923076923077,4.735903204128787,9.471806408257574
2,62,1,../static/images/invador3.png,2,20,2,10.0,left,70,2,819.0,-0.611986341,1,0,2,1260.0,264.0,4.7727272727272725,9.545454545454545,5.269716184473197,10.539432368946393
2,63,1,../static/images/invador3.png,2,20,2,10.0,right,70,1,829.0,-0.571784077,0,0,2,1280.0,268.0,4.776119402985074,9.552238805970148,5.209517555972161,10.419035111944321
2,64,1,../static/images/invador4.png,1,80,2,40.0,left,70,2,1057.0,0.344827529,0,0,2,1280.0,270.0,4.7407407407407405,9.481481481481481,5.1093103362402434,10.218620672480487
2,65,1,../static/images/invador1.png,4,20,8,2.5,left,74,1,949.0,-0.089356916,0,0,2,1360.0,274.0,4.963503649635037,39.70802919708029,5.625424935395958,45.00339948316766
2,66,1,../static/images/invador2.png,3,80,8,10.0,right,74,2,1113.0,0.569960205,0,0,2,1360.0,276.0,4.927536231884058,39.42028985507246,5.517217565609787,44.137740524878296
2,67,1,../static/images/invador1.png,4,20,8,2.5,left,74,1,814.0,-0.632087473,2,0,2,1440.0,286.0,5.034965034965035,40.27972027972028,5.716507330392724,45.73205864314179
2,68,1,../static/images/invador1.png,4,20,8,2.5,left,74,1,976.0,0.019189195,0,0,2,1440.0,288.0,5.0,40.0,5.606547953156518,44.852383625252145
2,69,1,../static/images/invador1.png,4,20,8,2.5,left,74,1,752.0,-0.881341506,0,0,2,1440.0,290.0,4.9655172413793105,39.724137931034484,5.498703689912713,43.9896295193017
2,70,1,../static/images/invador4.png,1,80,2,40.0,left,70,2,889.0,-0.330570497,1,0,2,1440.0,292.0,4.931506849315069,9.863013698630137,5.39293385557093,10.78586771114186
2,71,1,../static/images/invador1.png,4,20,8,2.5,left,74,1,882.0,-0.358712081,0,0,2,1520.0,296.0,5.135135135135135,41.08108108108108,5.895605548237929,47.16484438590343
2,72,1,../static/images/invador1.png,4,20,8,2.5,left,74,1,825.0,-0.587864983,0,0,2,1520.0,298.0,5.100671140939597,40.80536912751678,5.78220114288225,46.257609143058
2,73,1,../static/images/invador1.png,4,20,8,2.5,right,70,1,663.0,-1.239141651,0,0,2,1520.0,300.0,5.066666666666666,40.53333333333333,5.670978118056333,45.36782494445066
2,74,1,../static/images/invador3.png,2,20,2,10.0,left,74,1,673.0,-1.198939387,0,0,2,1520.0,302.0,5.033112582781457,10.066225165562914,5.5618945140056075,11.123789028011215
2,75,1,../static/images/invador2.png,3,80,8,10.0,left,70,2,808.0,-0.656208831,1,0,2,1520.0,304.0,5.0,40.0,5.454909178088701,43.63927342470961
2,76,1,../static/images/invador1.png,4,20,8,2.5,right,70,1,806.0,-0.664249283,0,0,2,1600.0,314.0,5.095541401273885,40.76433121019108,5.660511874860979,45.28409499888783
2,77,1,../static/images/invador1.png,4,20,8,2.5,right,70,1,784.0,-0.752694263,0,0,2,1600.0,316.0,5.063291139240507,40.50632911392405,5.551629593316681,44.41303674653345
2,78,1,../static/images/invador1.png,4,20,8,2.5,right,70,1,754.0,-0.873301053,2,0,2,1600.0,318.0,5.031446540880503,40.25157232704402,5.444841707384721,43.55873365907777
2,79,1,../static/images/invador2.png,3,80,8,10.0,left,70,2,597.0,-1.50447659,1,0,2,1600.0,320.0,5.0,40.0,5.340107930501308,42.72086344401046
2,80,1,../static/images/invador4.png,1,80,2,40.0,right,70,1,637.0,-1.343667536,2,0,2,1680.0,330.0,5.090909090909091,10.181818181818182,5.55734200624428,11.11468401248856
2,81,1,../static/images/invador1.png,4,20,8,2.5,right,70,1,1041.0,0.280503908,0,0,2,1680.0,332.0,5.0602409638554215,40.48192771084337,5.450444239692611,43.603553917540886
2,82,1,../static/images/invador3.png,2,20,2,10.0,left,74,1,1091.0,0.481515225,0,0,2,1680.0,334.0,5.029940119760479,10.059880239520957,5.345602695788548,10.691205391577096
2,83,1,../static/images/invador1.png,4,20,8,2.5,right,70,1,674.0,-1.194919161,0,0,2,1680.0,336.0,5.0,40.0,5.242777822241029,41.942222577928234
2,84,1,../static/images/invador1.png,4,20,8,2.5,right,70,1,826.0,-0.583844757,0,0,2,1680.0,338.0,4.970414201183432,39.76331360946745,5.141930827563632,41.13544662050906
2,85,1,../static/images/invador3.png,2,20,2,10.0,right,70,1,1264.0,1.177014383,0,0,2,1680.0,340.0,4.9411764705882355,9.882352941176471,5.04302366644018,10.08604733288036
2,86,1,../static/images/invador1.png,4,20,8,2.5,left,70,2,883.0,-0.354691855,1,0,2,1680.0,342.0,4.912280701754386,39.29824561403509,4.946019025371853,39.56815220297482
2,87,1,../static/images/invador2.png,3,80,8,10.0,right,74,2,801.0,-0.684350415,1,0,2,1700.0,352.0,4.829545454545454,38.63636363636363,4.634470745779537,37.0757659662363
2,88,1,../static/images/invador1.png,4,20,8,2.5,left,74,1,863.0,-0.435096382,0,0,2,1780.0,362.0,4.917127071823204,39.33701657458563,4.92319823891822,39.38558591134576
2,89,1,../static/images/invador1.png,4,20,8,2.5,left,74,1,737.0,-0.941644901,0,0,2,1780.0,364.0,4.8901098901098905,39.120879120879124,4.828498489390452,38.62798791512362
2,90,1,../static/images/invador4.png,1,80,2,40.0,left,70,2,1025.0,0.216180286,0,0,2,1780.0,366.0,4.863387978142076,9.726775956284152,4.735620328619711,9.471240657239422
2,91,1,../static/images/invador1.png,4,20,8,2.5,right,70,1,867.0,-0.419015476,0,0,2,1860.0,370.0,5.027027027027027,40.21621621621622,5.269446716417161,42.155573731337284
2,92,1,../static/images/invador1.png,4,20,8,2.5,right,70,1,1183.0,0.851376049,2,0,2,1860.0,372.0,5.0,40.0,5.168086734556209,41.344693876449675
2,93,1,../static/images/invador3.png,2,20,2,10.0,right,70,1,1515.0,2.186091196,0,0,2,1860.0,374.0,4.973262032085562,9.946524064171124,5.0686764537693465,10.137352907538693
2,94,1,../static/images/invador2.png,3,80,8,10.0,right,74,2,1325.0,1.42224819,0,0,2,1860.0,376.0,4.946808510638298,39.57446808510638,4.971178370751931,39.769426966015445
2,95,1,../static/images/invador4.png,1,80,2,40.0,left,70,2,1044.0,0.292564587,0,0,2,1940.0,386.0,5.025906735751295,10.05181347150259,5.225791478631907,10.451582957263813
2,96,1,../static/images/invador1.png,4,20,8,2.5,right,70,1,683.0,-1.158737124,0,0,2,2020.0,390.0,5.17948717948718,41.43589743589744,5.736385220037301,45.891081760298405
2,97,1,../static/images/invador1.png,4,20,8,2.5,right,70,1,705.0,-1.070292144,0,0,2,2020.0,392.0,5.153061224489796,41.224489795918366,5.626043483391799,45.00834786713439
2,98,1,../static/images/invador4.png,1,80,2,40.0,right,74,2,1285.0,1.261439136,0,0,2,2020.0,394.0,5.126903553299492,10.253807106598984,5.517824215579703,11.035648431159405
2,99,1,../static/images/invador1.png,4,20,8,2.5,left,70,2,669.0,-1.215020293,1,0,2,2100.0,398.0,5.276381909547739,42.21105527638191,6.014576478733585,48.11661182986868
2,100,1,../static/images/invador1.png,4,20,8,2.5,left,74,1,891.0,-0.322530044,0,0,2,2120.0,408.0,5.196078431372549,41.568627450980394,5.594764596147321,44.75811676917857
2,101,1,../static/images/invador2.png,3,80,8,10.0,right,70,1,575.0,-1.592921569,0,0,2,2120.0,410.0,5.170731707317073,41.36585365853659,5.487146990637617,43.89717592510094
2,102,1,../static/images/invador1.png,4,20,8,2.5,right,70,1,464.0,-2.039166694,0,0,2,2120.0,412.0,5.145631067961165,41.16504854368932,5.381599454174896,43.05279563339917
2,103,1,../static/images/invador1.png,4,20,8,2.5,left,74,1,733.0,-0.957725807,0,0,2,2120.0,414.0,5.120772946859903,40.966183574879224,5.278082168126892,42.22465734501514
2,104,1,../static/images/invador3.png,2,20,2,10.0,left,74,1,1159.0,0.754890617,0,0,2,2120.0,416.0,5.096153846153846,10.192307692307692,5.176556079789158,10.353112159578316
2,105,1,../static/images/invador4.png,1,80,2,40.0,right,74,2,1157.0,0.746850164,0,0,2,2120.0,418.0,5.07177033492823,10.14354066985646,5.076982887652132,10.153965775304265
2,106,1,../static/images/invador1.png,4,20,8,2.5,left,74,1,744.0,-0.913503317,0,0,2,2200.0,422.0,5.213270142180095,41.70616113744076,5.5946297111784276,44.75703768942742
2,107,1,../static/images/invador1.png,4,20,8,2.5,right,70,1,721.0,-1.005968523,0,0,2,2200.0,424.0,5.188679245283019,41.509433962264154,5.487014700236757,43.896117601894055
2,108,1,../static/images/invador1.png,4,20,8,2.5,right,74,2,886.0,-0.342631176,1,0,2,2200.0,426.0,5.164319248826291,41.31455399061033,5.381469708434483,43.05175766747586
2,109,1,../static/images/invador1.png,4,20,8,2.5,right,70,1,858.0,-0.455197513,0,0,2,2220.0,436.0,5.091743119266055,40.73394495412844,5.0258026407262655,40.206421125810124
2,110,1,../static/images/invador2.png,3,80,8,10.0,left,70,2,750.0,-0.889381959,1,0,2,2220.0,438.0,5.068493150684931,40.54794520547945,4.929129253193257,39.43303402554606
2,111,1,../static/images/invador3.png,2,20,2,10.0,right,70,1,854.0,-0.471278419,0,0,2,2300.0,448.0,5.133928571428571,10.267857142857142,5.188002673848454,10.376005347696909
2,112,1,../static/images/invador1.png,4,20,8,2.5,right,70,1,695.0,-1.110494408,0,0,2,2300.0,450.0,5.111111111111111,40.888888888888886,5.088209301751623,40.70567441401298
2,113,1,../static/images/invador1.png,4,20,8,2.5,left,74,1,699.0,-1.094413502,0,0,2,2300.0,452.0,5.088495575221239,40.70796460176991,4.990335496343655,39.92268397074924
2,114,1,../static/images/invador3.png,2,20,2,10.0,right,70,1,630.0,-1.37180912,0,0,2,2300.0,454.0,5.066079295154185,10.13215859030837,4.8943443339672426,9.788688667934485
2,115,1,../static/images/invador4.png,1,80,2,40.0,right,70,1,909.0,-0.25016597,2,0,2,2300.0,456.0,5.043859649122807,10.087719298245615,4.80019960120686,9.60039920241372
2,116,1,../static/images/invador1.png,4,20,8,2.5,left,74,1,891.0,-0.322530044,0,0,2,2300.0,458.0,5.021834061135372,40.17467248908297,4.707865781226973,37.66292624981578
2,117,1,../static/images/invador1.png,4,20,8,2.5,right,70,1,567.0,-1.62508338,2,0,2,2300.0,460.0,5.0,40.0,4.6173080403730316,36.93846432298425
2,118,1,../static/images/invador2.png,3,80,8,10.0,right,74,2,1253.0,1.132791893,0,0,2,2300.0,462.0,4.978354978354979,39.82683982683983,4.528492215030205,36.22793772024164
2,119,1,../static/images/invador1.png,4,20,8,2.5,left,74,1,853.0,-0.475298645,0,0,2,2380.0,472.0,5.0423728813559325,40.33898305084746,4.827957191252114,38.623657530016914
2,120,1,../static/images/invador3.png,2,20,2,10.0,left,74,1,759.0,-0.853199922,0,0,2,2380.0,474.0,5.0210970464135025,10.042194092827005,4.735089442574414,9.470178885148828
2,121,1,../static/images/invador2.png,3,80,8,10.0,right,74,2,1361.0,1.566976339,0,0,2,2380.0,476.0,5.0,40.0,4.644008043361471,37.15206434689177
2,122,1,../static/images/invador1.png,4,20,8,2.5,left,70,2,816.0,-0.62404702,1,0,2,2460.0,486.0,5.061728395061729,40.49382716049383,4.931769241055956,39.454153928447646
2,123,1,../static/images/invador1.png,4,20,8,2.5,left,74,1,677.0,-1.182858482,2,0,2,2480.0,496.0,5.0,40.0,4.62166471442898,36.97331771543184
2,124,1,../static/images/invador1.png,4,20,8,2.5,left,74,1,625.0,-1.391910252,2,0,2,2480.0,498.0,4.979919678714859,39.83935742971887,4.532765086663044,36.262120693304354
2,125,1,../static/images/invador4.png,1,80,2,40.0,right,70,1,662.0,-1.243161877,2,0,2,2480.0,500.0,4.96,9.92,4.4455754799188085,8.891150959837617
2,126,1,../static/images/invador2.png,3,80,8,10.0,right,74,2,1444.0,1.900655125,0,0,2,2480.0,502.0,4.940239043824701,39.52191235059761,4.360063001236334,34.88050400989067
2,127,1,../static/images/invador1.png,4,20,8,2.5,left,74,1,894.0,-0.310469365,0,0,2,2560.0,512.0,5.0,40.0,4.67659280956193,37.41274247649544
2,128,1,../static/images/invador3.png,2,20,2,10.0,left,74,1,968.0,-0.012972615,0,0,2,2560.0,514.0,4.980544747081712,9.961089494163424,4.586636617221769,9.173273234443538
2,129,1,../static/images/invador4.png,1,80,2,40.0,left,70,2,1214.0,0.976003066,0,0,2,2560.0,516.0,4.961240310077519,9.922480620155039,4.498410769358851,8.996821538717702
2,130,1,../static/images/invador1.png,4,20,8,2.5,right,70,1,704.0,-1.074312371,0,0,2,2640.0,520.0,5.076923076923077,40.61538461538461,5.043480180763433,40.347841446107466
2,131,1,../static/images/invador1.png,4,20,8,2.5,left,74,1,853.0,-0.475298645,0,0,2,2640.0,522.0,5.057471264367816,40.45977011494253,4.946466758453732,39.571734067629855
2,132,1,../static/images/invador1.png,4,20,8,2.5,right,70,1,814.0,-0.632087473,2,0,2,2640.0,524.0,5.038167938931298,40.30534351145038,4.851319429351681,38.810555434813445
2,133,1,../static/images/invador2.png,3,80,8,10.0,left,74,1,1959.0,3.971071694,0,0,2,2640.0,526.0,5.019011406844107,40.152091254752854,4.758002298384445,38.06401838707556
2,134,1,../static/images/invador3.png,2,20,2,10.0,right,74,0,NaN,NaN,1,1,2,2640.0,528.0,5.0,10.0,4.6664801609357305,9.332960321871461
2,135,1,../static/images/invador1.png,4,20,8,2.5,left,74,1,1152.0,0.726749032,0,0,2,2640.0,538.0,4.907063197026022,39.25650557620818,4.234608894707288,33.87687115765831
2,136,1,../static/images/invador1.png,4,20,8,2.5,right,70,1,635.0,-1.351707989,2,0,2,2640.0,540.0,4.888888888888889,39.111111111111114,4.153154445340052,33.225235562720414
2,137,1,../static/images/invador1.png,4,20,8,2.5,right,70,1,950.0,-0.08533669,0,0,2,2640.0,542.0,4.870848708487085,38.96678966789668,4.073266805915998,32.586134447327986
2,138,1,../static/images/invador1.png,4,20,8,2.5,right,70,1,651.0,-1.287384367,2,0,2,2640.0,544.0,4.852941176470588,38.8235294117647,3.9949158381993763,31.95932670559501
2,139,1,../static/images/invador4.png,1,80,2,40.0,left,70,2,529.0,-1.777851981,1,0,2,2640.0,546.0,4.835164835164835,9.67032967032967,3.918071983675835,7.83614396735167
2,140,1,../static/images/invador2.png,3,80,8,10.0,right,74,2,1414.0,1.780048335,0,0,2,2720.0,550.0,4.945454545454545,39.56363636363636,4.490647717708814,35.925181741670514
2,141,1,../static/images/invador1.png,4,20,8,2.5,right,70,1,1084.0,0.453373641,0,0,2,2800.0,560.0,5.0,40.0,4.793947004964368,38.35157603971494
2,142,1,../static/images/invador4.png,1,80,2,40.0,right,74,2,1236.0,1.064448045,0,0,2,2800.0,562.0,4.98220640569395,9.9644128113879,4.701733456253141,9.403466912506282
2,143,1,../static/images/invador1.png,4,20,8,2.5,right,70,1,823.0,-0.595905436,0,0,2,2880.0,566.0,5.088339222614841,40.706713780918726,5.237165980443982,41.89732784355186
2,144,1,../static/images/invador3.png,2,20,2,10.0,left,74,1,727.0,-0.981847165,2,0,2,2880.0,568.0,5.070422535211268,10.140845070422536,5.1364269318591,10.2728538637182
2,145,1,../static/images/invador1.png,4,20,8,2.5,left,74,1,839.0,-0.531581814,0,0,2,2880.0,570.0,5.052631578947368,40.421052631578945,5.037625640440534,40.30100512352427
2,146,1,../static/images/invador1.png,4,20,8,2.5,left,74,1,785.0,-0.748674037,0,0,2,2880.0,572.0,5.034965034965035,40.27972027972028,4.940724832629635,39.52579866103708
2,147,1,../static/images/invador4.png,1,80,2,40.0,right,70,1,727.0,-0.981847165,2,0,2,2880.0,574.0,5.017421602787456,10.034843205574912,4.845687951840034,9.691375903680068
2,148,1,../static/images/invador1.png,4,20,8,2.5,left,74,1,1143.0,0.690566995,0,0,2,2880.0,576.0,5.0,40.0,4.752479144666387,38.0198331573311
2,149,1,../static/images/invador1.png,4,20,8,2.5,left,74,1,846.0,-0.50344023,0,0,2,2880.0,578.0,4.982698961937716,39.86159169550173,4.661063247358394,37.28850597886715
2,150,1,../static/images/invador1.png,4,20,8,2.5,right,70,1,778.0,-0.776815621,0,0,2,2880.0,580.0,4.9655172413793105,39.724137931034484,4.571405772555001,36.571246180440006
2,151,0,../static/images/invador4.png,1,80,2,40.0,right,74,2,1298.0,1.313702079,0,0,2,2880.0,582.0,4.948453608247423,9.896907216494846,4.483472896273774,8.966945792547548
2,152,0,../static/images/invador3.png,2,20,2,10.0,right,70,1,885.0,-0.346651402,2,0,2,2960.0,586.0,5.051194539249146,10.102389078498293,5.029250318182905,10.05850063636581
2,153,0,../static/images/invador4.png,1,80,2,40.0,left,70,2,1222.0,1.008164877,0,0,2,2960.0,588.0,5.034013605442177,10.068027210884354,4.932510613151443,9.865021226302886
2,154,0,../static/images/invador4.png,1,80,2,40.0,left,70,2,1022.0,0.204119607,0,0,2,3040.0,592.0,5.135135135135135,10.27027027027027,5.457004990367603,10.914009980735205
2,155,0,../static/images/invador3.png,2,20,2,10.0,right,70,1,761.0,-0.845159469,0,0,2,3120.0,596.0,5.23489932885906,10.46979865771812,5.956639902884175,11.91327980576835
2,156,0,../static/images/invador4.png,1,80,2,40.0,right,74,2,1101.0,0.521717489,0,0,2,3120.0,598.0,5.217391304347826,10.434782608695652,5.842061476532979,11.684122953065957
2,157,0,../static/images/invador4.png,1,80,2,40.0,right,74,2,830.0,-0.567763851,1,0,2,3200.0,602.0,5.3156146179401995,10.631229235880399,6.323445863322313,12.646891726644625
2,158,0,../static/images/invador4.png,1,80,2,40.0,left,70,2,1111.0,0.561919752,0,0,2,3280.0,606.0,5.412541254125412,10.825082508250825,6.78201407001485,13.5640281400297
2,159,0,../static/images/invador2.png,3,80,8,10.0,left,70,2,1214.0,0.976003066,0,0,2,3360.0,610.0,5.508196721311475,44.0655737704918,7.218847515303209,57.750780122425674
2,160,0,../static/images/invador1.png,4,20,8,2.5,right,70,1,848.0,-0.495399777,0,0,2,3440.0,620.0,5.548387096774194,44.38709677419355,7.2457323347679115,57.96585867814329
2,161,0,../static/images/invador2.png,3,80,8,10.0,left,74,1,1095.0,0.497596131,2,0,2,3440.0,622.0,5.530546623794212,44.244372990353696,7.106357683586176,56.85086146868941
2,162,0,../static/images/invador3.png,2,20,2,10.0,left,74,1,1082.0,0.445333188,0,0,2,3440.0,624.0,5.512820512820513,11.025641025641026,6.969663961328466,13.939327922656933
2,163,0,../static/images/invador4.png,1,80,2,40.0,right,74,2,899.0,-0.290368233,1,0,2,3440.0,626.0,5.49520766773163,10.99041533546326,6.835599599220729,13.671199198441458
2,164,0,../static/images/invador4.png,1,80,2,40.0,right,70,1,834.0,-0.551682946,2,0,2,3520.0,630.0,5.587301587301587,11.174603174603174,7.269893250700863,14.539786501401727
2,165,0,../static/images/invador1.png,4,20,8,2.5,right,70,1,971.0,-0.000911936,0,0,2,3520.0,632.0,5.569620253164557,44.55696202531646,7.130053854331919,57.04043083465535
2,166,0,../static/images/invador4.png,1,80,2,40.0,left,70,2,1320.0,1.402147058,0,0,2,3520.0,634.0,5.55205047318612,11.10410094637224,6.9929043264524395,13.985808652904879
2,167,0,../static/images/invador4.png,1,80,2,40.0,left,70,2,942.0,-0.1174985,0,0,2,3600.0,638.0,5.6426332288401255,11.285266457680251,7.41974220436556,14.83948440873112
2,168,0,../static/images/invador2.png,3,80,8,10.0,right,74,0,NaN,NaN,0,1,2,3680.0,642.0,5.73208722741433,45.85669781931464,7.826349243552159,62.610793948417275
2,169,0,../static/images/invador1.png,4,20,8,2.5,left,74,1,975.0,0.015168969,0,0,2,3680.0,652.0,5.644171779141105,45.15337423312884,7.102039862350136,56.816318898801086
2,170,0,../static/images/invador4.png,1,80,2,40.0,right,74,2,986.0,0.059391459,0,0,2,3680.0,654.0,5.626911314984709,11.253822629969418,6.965429195165514,13.930858390331029
2,171,0,../static/images/invador4.png,1,80,2,40.0,right,74,2,1213.0,0.971982839,0,0,2,3760.0,658.0,5.714285714285714,11.428571428571429,7.393569312122588,14.787138624245175
2,172,0,../static/images/invador4.png,1,80,2,40.0,right,74,2,1144.0,0.694587222,0,0,2,3840.0,662.0,5.80060422960725,11.6012084592145,7.801416868117497,15.602833736234993
2,173,0,../static/images/invador3.png,2,20,2,10.0,right,70,1,915.0,-0.226044612,0,0,2,3920.0,666.0,5.885885885885886,11.771771771771771,8.18993366984411,16.37986733968822
2,174,0,../static/images/invador4.png,1,80,2,40.0,left,70,2,1059.0,0.352867982,0,0,2,3920.0,668.0,5.868263473053892,11.736526946107784,8.032396916387341,16.064793832774683
2,175,0,../static/images/invador4.png,1,80,2,40.0,right,74,2,1087.0,0.46543432,0,0,2,4000.0,672.0,5.9523809523809526,11.904761904761905,8.409965954695116,16.81993190939023
2,176,0,../static/images/invador1.png,4,20,8,2.5,right,70,1,778.0,-0.776815621,0,0,2,4080.0,676.0,6.035502958579881,48.28402366863905,8.769639349908894,70.15711479927116
2,177,0,../static/images/invador2.png,3,80,8,10.0,left,74,1,1152.0,0.726749032,0,0,2,4080.0,678.0,6.017699115044247,48.14159292035398,8.60095171849885,68.8076137479908
2,178,0,../static/images/invador3.png,2,20,2,10.0,right,70,1,695.0,-1.110494408,0,0,2,4080.0,680.0,6.0,12.0,8.435508863282598,16.871017726565196
2,179,0,../static/images/invador4.png,1,80,2,40.0,left,70,2,1066.0,0.381009567,0,0,2,4080.0,682.0,5.9824046920821115,11.964809384164223,8.273248369651196,16.54649673930239
2,180,0,../static/images/invador4.png,1,80,2,40.0,left,70,2,1008.0,0.147836438,0,0,2,4160.0,686.0,6.0641399416909625,12.128279883381925,8.639401769469124,17.27880353893825
2,181,0,../static/images/invador4.png,1,80,2,40.0,left,70,2,790.0,-0.728572905,1,0,2,4240.0,690.0,6.144927536231884,12.289855072463768,8.98820059331291,17.97640118662582
2,182,0,../static/images/invador4.png,1,80,2,40.0,right,74,2,1174.0,0.815194012,0,0,2,4320.0,694.0,6.22478386167147,12.44956772334294,9.320467396175609,18.640934792351217
2,183,0,../static/images/invador2.png,3,80,8,10.0,right,70,1,694.0,-1.114514634,2,0,2,4400.0,698.0,6.303724928366762,50.429799426934096,9.636985746403884,77.09588597123107
2,184,0,../static/images/invador4.png,1,80,2,40.0,right,74,2,1227.0,1.028266008,0,0,2,4400.0,700.0,6.285714285714286,12.571428571428571,9.451614349174175,18.90322869834835
2,185,0,../static/images/invador4.png,1,80,2,40.0,right,74,2,848.0,-0.495399777,0,0,2,4480.0,704.0,6.363636363636363,12.727272727272727,9.761916726095297,19.523833452190594
2,186,0,../static/images/invador1.png,4,20,8,2.5,left,74,1,816.0,-0.62404702,2,0,2,4560.0,708.0,6.440677966101695,51.52542372881356,10.057511698475285,80.46009358780228
2,187,0,../static/images/invador3.png,2,20,2,10.0,left,70,2,537.0,-1.745690171,1,0,2,4560.0,710.0,6.422535211267606,12.845070422535212,9.86405131104074,19.72810262208148
2,188,0,../static/images/invador4.png,1,80,2,40.0,right,74,2,1222.0,1.008164877,0,0,2,4580.0,714.0,6.4145658263305325,12.829131652661065,9.586094939352481,19.172189878704962
2,189,0,../static/images/invador4.png,1,80,2,40.0,right,74,2,1293.0,1.293600947,0,0,2,4660.0,718.0,6.49025069637883,12.98050139275766,9.890023338535155,19.78004667707031
2,190,0,../static/images/invador3.png,2,20,2,10.0,left,74,1,674.0,-1.194919161,2,0,2,4740.0,722.0,6.565096952908587,13.130193905817174,10.179546440656713,20.359092881313426
2,191,0,../static/images/invador1.png,4,20,8,2.5,left,74,1,975.0,0.015168969,0,0,2,4740.0,724.0,6.54696132596685,52.3756906077348,9.983738664602528,79.86990931682023
2,192,0,../static/images/invador2.png,3,80,8,10.0,right,74,2,818.0,-0.616006567,1,0,2,4740.0,726.0,6.528925619834711,52.231404958677686,9.791697331914635,78.33357865531708
2,193,0,../static/images/invador4.png,1,80,2,40.0,right,74,2,1220.0,1.000124424,0,0,2,4820.0,736.0,6.548913043478261,13.097826086956522,9.557907360115328,19.115814720230656
2,194,0,../static/images/invador4.png,1,80,2,40.0,right,74,2,1185.0,0.859416502,0,0,2,4900.0,740.0,6.621621621621622,13.243243243243244,9.86317176624384,19.72634353248768
2,195,0,../static/images/invador4.png,1,80,2,40.0,right,74,2,1150.0,0.71870858,0,0,2,4980.0,744.0,6.693548387096774,13.387096774193548,10.153967552578042,20.307935105156083
2,196,0,../static/images/invador2.png,3,80,8,10.0,right,70,1,1568.0,2.399163192,0,0,2,5060.0,748.0,6.764705882352941,54.11764705882353,10.430980488420056,83.44784390736045
2,197,0,../static/images/invador4.png,1,80,2,40.0,left,70,2,1335.0,1.462450454,0,0,2,5060.0,750.0,6.746666666666667,13.493333333333334,10.230336274710828,20.460672549421655
2,198,0,../static/images/invador3.png,2,20,2,10.0,left,74,1,847.0,-0.499420003,0,0,2,5140.0,754.0,6.816976127320955,13.63395225464191,10.503729561545184,21.007459123090367
2,199,0,../static/images/invador4.png,1,80,2,40.0,right,74,2,1147.0,0.706647901,0,0,2,5140.0,756.0,6.798941798941799,13.597883597883598,10.301685989396788,20.603371978793575
2,200,0,../static/images/invador4.png,1,80,2,40.0,left,70,2,1190.0,0.879517633,0,0,2,5220.0,760.0,6.868421052631579,13.736842105263158,10.571697513164445,21.14339502632889
2,201,0,../static/images/invador4.png,1,80,2,40.0,left,70,2,1198.0,0.911679444,0,0,2,5300.0,764.0,6.93717277486911,13.87434554973822,10.828911298319134,21.65782259663827
2,202,0,../static/images/invador1.png,4,20,8,2.5,right,70,1,852.0,-0.479318872,0,0,2,5380.0,768.0,7.005208333333333,56.041666666666664,11.073933919392639,88.59147135514111
2,203,0,../static/images/invador3.png,2,20,2,10.0,right,74,2,604.0,-1.476335005,1,0,2,5380.0,770.0,6.987012987012987,13.974025974025974,10.860922231144238,21.721844462288477
2,204,0,../static/images/invador1.png,4,20,8,2.5,left,74,1,960.0,-0.045134426,0,0,2,5400.0,774.0,6.976744186046512,55.81395348837209,10.535717159517782,84.28573727614226
2,205,0,../static/images/invador2.png,3,80,8,10.0,left,74,1,772.0,-0.800936979,0,0,2,5400.0,776.0,6.958762886597938,55.670103092783506,10.333058292723711,82.66446634178969
2,206,0,../static/images/invador4.png,1,80,2,40.0,right,74,2,999.0,0.111654401,0,0,2,5400.0,778.0,6.940874035989717,13.881748071979434,10.134297652853203,20.268595305706405
2,207,0,../static/images/invador4.png,1,80,2,40.0,left,70,2,1190.0,0.879517633,0,0,2,5480.0,782.0,7.0076726342711,14.0153452685422,10.41224288310884,20.82448576621768
2,208,0,../static/images/invador4.png,1,80,2,40.0,left,70,2,1146.0,0.702627674,0,0,2,5560.0,786.0,7.073791348600509,14.147582697201019,10.677014340793962,21.354028681587923
2,209,0,../static/images/invador4.png,1,80,2,40.0,right,74,2,1207.0,0.947861481,0,0,2,5640.0,790.0,7.139240506329114,14.278481012658228,10.929236423325213,21.858472846650425
2,210,0,../static/images/invador2.png,3,80,8,10.0,right,70,1,980.0,0.035270101,0,0,2,5720.0,794.0,7.204030226700252,57.632241813602015,11.169503933549281,89.35603146839425
2,211,0,../static/images/invador1.png,4,20,8,2.5,left,74,1,584.0,-1.556739532,2,0,2,5720.0,796.0,7.185929648241206,57.48743718592965,10.954653916644633,87.63723133315706
2,212,0,../static/images/invador4.png,1,80,2,40.0,left,70,2,1311.0,1.365965021,0,0,2,5720.0,798.0,7.167919799498747,14.335839598997493,10.743936628466214,21.487873256932428
2,213,0,../static/images/invador4.png,1,80,2,40.0,right,74,2,1226.0,1.024245782,0,0,2,5800.0,802.0,7.231920199501247,14.463840399002494,10.992986794728628,21.985973589457256
2,214,0,../static/images/invador3.png,2,20,2,10.0,right,74,2,767.0,-0.821038111,1,0,2,5880.0,806.0,7.295285359801489,14.590570719602978,11.230232728027696,22.460465456055392
2,215,0,../static/images/invador4.png,1,80,2,40.0,right,74,2,1201.0,0.923740123,0,0,2,5900.0,810.0,7.283950617283951,14.567901234567902,10.887523443469178,21.775046886938355
2,216,0,../static/images/invador4.png,1,80,2,40.0,right,74,2,1206.0,0.943841255,0,0,2,5980.0,814.0,7.346437346437346,14.692874692874692,11.129768024173483,22.259536048346966
2,217,0,../static/images/invador1.png,4,20,8,2.5,right,70,1,864.0,-0.431076155,0,0,2,6060.0,818.0,7.408312958435208,59.266503667481665,11.360530936314158,90.88424749051326
2,218,0,../static/images/invador4.png,1,80,2,40.0,left,70,2,1210.0,0.95992216,0,0,2,6060.0,820.0,7.390243902439025,14.78048780487805,11.142006436190071,22.284012872380142
2,219,0,../static/images/invador3.png,2,20,2,10.0,right,70,1,729.0,-0.973806712,0,0,2,6140.0,824.0,7.451456310679611,14.902912621359222,11.372189284206664,22.744378568413328
2,220,0,../static/images/invador4.png,1,80,2,40.0,left,70,2,1128.0,0.6302636,0,0,2,6140.0,826.0,7.433414043583535,14.86682808716707,11.153440530950414,22.306881061900828
2,221,0,../static/images/invador4.png,1,80,2,40.0,left,70,2,713.0,-1.038130334,1,0,2,6220.0,830.0,7.493975903614458,14.987951807228916,11.383081437075134,22.766162874150268
2,222,0,../static/images/invador2.png,3,80,8,10.0,left,74,1,933.0,-0.153680537,0,0,2,6300.0,834.0,7.553956834532374,60.431654676258994,11.601838051113273,92.81470440890618
2,223,0,../static/images/invador4.png,1,80,2,40.0,right,74,2,764.0,-0.83309879,1,0,2,6300.0,836.0,7.535885167464115,15.07177033492823,11.378671909068268,22.757343818136537
2,224,0,../static/images/invador4.png,1,80,2,40.0,left,70,2,1240.0,1.080528951,0,0,2,6380.0,840.0,7.595238095238095,15.19047619047619,11.597637521544886,23.195275043089772
2,225,0,../static/images/invador4.png,1,80,2,40.0,left,70,2,606.0,-1.468294553,1,0,2,6460.0,844.0,7.654028436018957,15.308056872037914,11.806224818923678,23.612449637847355
2,226,0,../static/images/invador4.png,1,80,2,40.0,right,74,2,1130.0,0.638304053,0,0,2,6540.0,848.0,7.712264150943396,15.424528301886792,12.004925702298396,24.00985140459679
2,227,0,../static/images/invador3.png,2,20,2,10.0,left,74,1,715.0,-1.030089881,2,0,2,6620.0,852.0,7.769953051643192,15.539906103286384,12.194208758122224,24.38841751624445
2,228,0,../static/images/invador2.png,3,80,8,10.0,left,74,1,602.0,-1.484375458,2,0,2,6620.0,854.0,7.751756440281031,62.014051522248245,11.95964812110485,95.6771849688388
2,229,0,../static/images/invador1.png,4,20,8,2.5,right,70,1,957.0,-0.057195105,0,0,2,6620.0,856.0,7.733644859813084,61.86915887850467,11.72959935472454,93.83679483779632
2,230,0,../static/images/invador4.png,1,80,2,40.0,right,74,2,758.0,-0.857220148,1,0,2,6620.0,858.0,7.715617715617715,15.43123543123543,11.503975671287908,23.007951342575815
2,231,0,../static/images/invador4.png,1,80,2,40.0,left,70,2,1309.0,1.357924569,0,0,2,6700.0,862.0,7.77262180974478,15.54524361948956,11.717002260223113,23.434004520446226
2,232,0,../static/images/invador4.png,1,80,2,40.0,right,74,2,894.0,-0.310469365,1,0,2,6780.0,866.0,7.829099307159353,15.658198614318707,11.919932026012537,23.839864052025074
2,233,0,../static/images/invador1.png,4,20,8,2.5,right,70,1,806.0,-0.664249283,0,0,2,6860.0,870.0,7.885057471264368,63.08045977011494,12.113243527873351,96.90594822298681
2,234,0,../static/images/invador4.png,1,80,2,40.0,right,74,2,1320.0,1.402147058,0,0,2,6860.0,872.0,7.86697247706422,15.73394495412844,11.880240290467556,23.760480580935113
2,235,0,../static/images/invador2.png,3,80,8,10.0,right,74,2,744.0,-0.913503317,1,0,2,6940.0,876.0,7.922374429223744,63.37899543378995,12.075433061873877,96.60346449499102
2,236,0,../static/images/invador4.png,1,80,2,40.0,right,74,2,1283.0,1.253398684,0,0,2,7020.0,886.0,7.923250564334086,15.846501128668171,11.6102606242712,23.2205212485424
2,237,0,../static/images/invador3.png,2,20,2,10.0,right,70,1,911.0,-0.242125517,0,0,2,7100.0,890.0,7.977528089887641,15.955056179775282,11.818249624336895,23.63649924867379
2,238,0,../static/images/invador3.png,2,20,2,10.0,left,74,1,767.0,-0.821038111,0,0,2,7100.0,892.0,7.959641255605381,15.919282511210762,11.590920716385538,23.181841432771076
2,239,0,../static/images/invador4.png,1,80,2,40.0,left,70,2,692.0,-1.122555087,1,0,2,7100.0,894.0,7.941834451901566,15.883668903803132,11.367964573778714,22.735929147557428
2,240,0,../static/images/invador4.png,1,80,2,40.0,left,70,2,1161.0,0.762931069,0,0,2,7180.0,898.0,7.99554565701559,15.99109131403118,11.587437681922054,23.17487536384411
2,241,0,../static/images/invador1.png,4,20,8,2.5,right,70,1,655.0,-1.271303462,2,0,2,7260.0,902.0,8.048780487804878,64.39024390243902,11.796508421190905,94.37206736952724
2,242,0,../static/images/invador4.png,1,80,2,40.0,right,74,2,1350.0,1.522753849,0,0,2,7260.0,904.0,8.030973451327434,16.061946902654867,11.569597714252883,23.139195428505765
2,243,0,../static/images/invador2.png,3,80,8,10.0,right,74,2,781.0,-0.764754942,1,0,2,7340.0,908.0,8.083700440528634,64.66960352422907,11.779514014629301,94.23611211703441
2,244,0,../static/images/invador4.png,1,80,2,40.0,right,74,2,1365.0,1.583057244,0,0,2,7420.0,918.0,8.082788671023964,16.16557734204793,11.344323364293604,22.68864672858721
2,245,0,../static/images/invador4.png,1,80,2,40.0,right,74,2,1148.0,0.710668127,0,0,2,7500.0,922.0,8.134490238611713,16.268980477223426,11.56491699505488,23.12983399010976
2,246,0,../static/images/invador1.png,4,20,8,2.5,left,74,1,641.0,-1.327586631,2,0,2,7580.0,926.0,8.18574514038877,65.48596112311016,11.775055147521096,94.20044118016877
2,247,0,../static/images/invador4.png,1,80,2,40.0,left,70,2,1373.0,1.615219055,0,0,2,7580.0,928.0,8.168103448275861,16.336206896551722,11.548557103154126,23.09711420630825
2,248,0,../static/images/invador3.png,2,20,2,10.0,right,70,1,867.0,-0.419015476,0,0,2,7660.0,932.0,8.218884120171674,16.43776824034335,11.759470665563445,23.51894133112689
2,249,0,../static/images/invador4.png,1,80,2,40.0,left,74,1,618.0,-1.420051836,2,0,2,7660.0,934.0,8.201284796573876,16.402569593147753,11.533272395137375,23.06654479027475
2,250,0,../static/images/invador4.png,1,80,2,40.0,right,74,2,1344.0,1.498632491,0,0,2,7660.0,936.0,8.183760683760683,16.367521367521366,11.31142514177652,22.62285028355304
2,251,0,../static/images/invador2.png,3,80,8,10.0,left,74,1,934.0,-0.149660311,0,0,2,7740.0,940.0,8.23404255319149,65.87234042553192,11.533578049885405,92.26862439908324
2,252,0,../static/images/invador1.png,4,20,8,2.5,left,74,1,692.0,-1.122555087,0,0,2,7740.0,942.0,8.21656050955414,65.73248407643312,11.31172491712935,90.4937993370348
2,253,0,../static/images/invador3.png,2,20,2,10.0,left,70,2,764.0,-0.83309879,1,0,2,7740.0,944.0,8.19915254237288,16.39830508474576,11.094139220922543,22.188278441845085
2,254,0,../static/images/invador4.png,1,80,2,40.0,left,74,1,659.0,-1.255222556,2,0,2,7760.0,948.0,8.185654008438819,16.371308016877638,10.757880361540515,21.51576072308103
2,255,0,../static/images/invador4.png,1,80,2,40.0,right,74,2,1305.0,1.341843663,0,0,2,7760.0,950.0,8.16842105263158,16.33684210526316,10.550948093886914,21.10189618777383
2,256,0,../static/images/invador4.png,1,80,2,40.0,right,74,2,1322.0,1.410187511,0,0,2,7840.0,954.0,8.218029350104821,16.436058700209642,10.809145339453144,21.618290678906288
2,257,0,../static/images/invador4.png,1,80,2,40.0,right,74,2,1124.0,0.614182695,0,0,2,7920.0,958.0,8.267223382045929,16.534446764091857,11.055104807856244,22.11020961571249
2,258,0,../static/images/invador2.png,3,80,8,10.0,right,74,2,872.0,-0.398914345,1,0,2,8000.0,962.0,8.316008316008316,66.52806652806653,11.289406533130146,90.31525226504117
2,259,0,../static/images/invador4.png,1,80,2,40.0,left,70,2,668.0,-1.219040519,1,0,2,8080.0,972.0,8.312757201646091,16.625514403292183,10.90387236278479,21.80774472556958
2,260,0,../static/images/invador3.png,2,20,2,10.0,right,70,1,937.0,-0.137599632,0,0,2,8160.0,976.0,8.360655737704919,16.721311475409838,11.14534205361371,22.29068410722742
2,261,0,../static/images/invador2.png,3,80,8,10.0,right,70,1,720.0,-1.009988749,2,0,2,8160.0,978.0,8.343558282208589,66.74846625766871,10.930956800439256,87.44765440351405
2,262,0,../static/images/invador4.png,1,80,2,40.0,right,70,1,585.0,-1.552719306,2,0,2,8160.0,980.0,8.326530612244898,16.653061224489797,10.720695336068914,21.44139067213783
2,263,0,../static/images/invador4.png,1,80,2,40.0,right,74,2,1326.0,1.426268417,0,0,2,8160.0,982.0,8.309572301425662,16.619144602851325,10.514478337723485,21.02895667544697
2,264,0,../static/images/invador1.png,4,20,8,2.5,left,74,1,787.0,-0.740633584,0,0,2,8240.0,986.0,8.356997971602434,66.85598377281947,10.774404140649583,86.19523312519667
2,265,0,../static/images/invador4.png,1,80,2,40.0,left,74,1,607.0,-1.464274326,2,0,2,8240.0,988.0,8.34008097165992,16.68016194331984,10.567154031286803,21.134308062573606
2,266,0,../static/images/invador4.png,1,80,2,40.0,left,70,2,1270.0,1.201135741,0,0,2,8240.0,990.0,8.323232323232324,16.646464646464647,10.363890463292824,20.72778092658565
2,267,0,../static/images/invador4.png,1,80,2,40.0,left,70,2,1052.0,0.324726398,0,0,2,8320.0,994.0,8.370221327967807,16.740442655935613,10.6309536810535,21.261907362107
2,268,0,../static/images/invador2.png,3,80,8,10.0,left,74,1,869.0,-0.410975024,0,0,2,8400.0,998.0,8.41683366733467,67.33466933867736,10.885358901087454,87.08287120869963
2,269,0,../static/images/invador4.png,1,80,2,40.0,left,74,1,636.0,-1.347687762,2,0,2,8400.0,1000.0,8.4,16.8,10.675974531125677,21.351949062251354
2,270,0,../static/images/invador4.png,1,80,2,40.0,left,70,2,1190.0,0.879517633,0,0,2,8400.0,1002.0,8.383233532934131,16.766467065868262,10.470617755915956,20.941235511831913
2,271,0,../static/images/invador3.png,2,20,2,10.0,right,74,2,772.0,-0.800936979,1,0,2,8480.0,1006.0,8.429423459244532,16.858846918489064,10.732622419231244,21.46524483846249
2,272,0,../static/images/invador1.png,4,20,8,2.5,right,70,1,910.0,-0.246145743,0,0,2,8500.0,1010.0,8.415841584158416,67.32673267326733,10.413498374940378,83.30798699952302
2,273,0,../static/images/invador4.png,1,80,2,40.0,right,74,2,1213.0,0.971982839,0,0,2,8500.0,1012.0,8.399209486166008,16.798418972332016,10.213190436897372,20.426380873794745
2,274,0,../static/images/invador4.png,1,80,2,40.0,right,70,1,704.0,-1.074312371,2,0,2,8580.0,1016.0,8.44488188976378,16.88976377952756,10.487396385160306,20.97479277032061
2,275,0,../static/images/invador2.png,3,80,8,10.0,right,70,1,1410.0,1.76396743,0,0,2,8580.0,1018.0,8.428290766208251,67.42632612966601,10.285666988399042,82.28533590719233
2,276,0,../static/images/invador1.png,4,20,8,2.5,left,74,1,800.0,-0.688370642,0,0,2,8580.0,1020.0,8.411764705882353,67.29411764705883,10.087817939821743,80.70254351857395
2,277,0,../static/images/invador4.png,1,80,2,40.0,right,74,2,1067.0,0.385029793,0,0,2,8580.0,1022.0,8.395303326810176,16.79060665362035,9.893774599329985,19.78754919865997
2,278,0,../static/images/invador3.png,2,20,2,10.0,right,74,2,645.0,-1.311505725,1,0,2,8660.0,1026.0,8.440545808966862,16.881091617933723,10.183119902910015,20.36623980582003
2,279,0,../static/images/invador4.png,1,80,2,40.0,left,70,2,1240.0,1.080528951,0,0,2,8680.0,1030.0,8.427184466019417,16.854368932038835,9.890040634312125,19.78008126862425
2,280,0,../static/images/invador2.png,3,80,8,10.0,right,70,1,1084.0,0.453373641,0,0,2,8760.0,1034.0,8.471953578336556,67.77562862669245,10.179562916665587,81.4365033333247
2,281,0,../static/images/invador4.png,1,80,2,40.0,right,70,1,521.0,-1.810013792,2,0,2,8760.0,1036.0,8.455598455598455,16.91119691119691,9.983754823688573,19.967509647377145
2,282,0,../static/images/invador1.png,4,20,8,2.5,left,74,1,876.0,-0.382833439,0,0,2,8760.0,1038.0,8.439306358381502,67.51445086705202,9.791713180173993,78.33370544139194
2,283,0,../static/images/invador3.png,2,20,2,10.0,right,70,1,636.0,-1.347687762,0,0,2,8760.0,1040.0,8.423076923076923,16.846153846153847,9.603365536912332,19.206731073824663
2,284,0,../static/images/invador4.png,1,80,2,40.0,right,74,2,1090.0,0.477494999,0,0,2,8760.0,1042.0,8.406909788867562,16.813819577735124,9.418640838284512,18.837281676569024
2,285,0,../static/images/invador4.png,1,80,2,40.0,left,70,2,1417.0,1.792109014,0,0,2,8840.0,1046.0,8.451242829827915,16.90248565965583,9.730506060996914,19.46101212199383
2,286,0,../static/images/invador4.png,1,80,2,40.0,right,74,2,1233.0,1.052387366,0,0,2,8920.0,1050.0,8.495238095238095,16.99047619047619,10.027589804952203,20.055179609904407
2,287,0,../static/images/invador4.png,1,80,2,40.0,left,70,2,1206.0,0.943841255,0,0,2,9000.0,1054.0,8.538899430740038,17.077798861480076,10.310592668031555,20.62118533606311
2,288,0,../static/images/invador4.png,1,80,2,40.0,right,74,2,1315.0,1.382045927,0,0,2,9080.0,1058.0,8.582230623818525,17.16446124763705,10.580182041872105,21.16036408374421
2,289,0,../static/images/invador3.png,2,20,2,10.0,left,74,1,834.0,-0.551682946,0,0,2,9160.0,1062.0,8.625235404896422,17.250470809792844,10.836993685743563,21.673987371487126
2,290,0,../static/images/invador4.png,1,80,2,40.0,right,74,2,1193.0,0.891578313,0,0,2,9160.0,1064.0,8.609022556390977,17.218045112781954,10.628539640655303,21.257079281310606
2,291,0,../static/images/invador4.png,1,80,2,40.0,left,70,2,1056.0,0.340807303,0,0,2,9240.0,1068.0,8.651685393258427,17.303370786516854,10.883059278983655,21.76611855796731
2,292,0,../static/images/invador2.png,3,80,8,10.0,left,74,1,671.0,-1.20697984,2,0,2,9320.0,1072.0,8.694029850746269,69.55223880597015,11.125515447732111,89.00412358185689
2,293,0,../static/images/invador1.png,4,20,8,2.5,left,74,1,859.0,-0.451177287,0,0,2,9320.0,1074.0,8.677839851024208,69.42271880819366,10.911511567502613,87.2920925400209
2,294,0,../static/images/invador4.png,1,80,2,40.0,left,70,2,688.0,-1.138635992,1,0,2,9320.0,1076.0,8.661710037174721,17.323420074349443,10.701624140211269,21.403248280422538
2,295,0,../static/images/invador3.png,2,20,2,10.0,left,70,2,791.0,-0.724552679,1,0,2,9400.0,1080.0,8.703703703703704,17.40740740740741,10.952679791858884,21.905359583717768
2,296,0,../static/images/invador1.png,4,20,8,2.5,right,70,1,769.0,-0.812997658,0,0,2,9420.0,1084.0,8.690036900369003,69.52029520295203,10.62312568630453,84.98500549043624
2,297,0,../static/images/invador2.png,3,80,8,10.0,left,74,1,685.0,-1.150696671,2,0,2,9420.0,1086.0,8.67403314917127,69.39226519337016,10.41878548043135,83.3502838434508
2,298,0,../static/images/invador4.png,1,80,2,40.0,right,70,1,669.0,-1.215020293,2,0,2,9420.0,1088.0,8.658088235294118,17.316176470588236,10.21837584273267,20.43675168546534
2,299,0,../static/images/invador4.png,1,80,2,40.0,left,70,2,1211.0,0.963942387,0,0,2,9420.0,1090.0,8.642201834862385,17.28440366972477,10.021821167107827,20.043642334215654
2,300,0,../static/images/invador4.png,1,80,2,40.0,left,70,2,632.0,-1.363768668,1,0,2,9500.0,1094.0,8.683729433272395,17.36745886654479,10.305097446366812,20.610194892733624
2,301,0,../static/images/invador4.png,1,80,2,40.0,right,74,2,733.0,-0.957725807,1,0,2,9580.0,1098.0,8.724954462659381,17.449908925318763,10.574947277277872,21.149894554555743
2,302,0,../static/images/invador1.png,4,20,8,2.5,right,70,1,980.0,0.035270101,0,0,2,9660.0,1102.0,8.765880217785844,70.12704174228675,10.83200703333374,86.65605626666992
2,303,0,../static/images/invador4.png,1,80,2,40.0,left,70,2,1140.0,0.678506316,0,0,2,9660.0,1104.0,8.75,17.5,10.623648908562167,21.247297817124334
2,304,0,../static/images/invador3.png,2,20,2,10.0,right,70,1,673.0,-1.198939387,0,0,2,9740.0,1108.0,8.790613718411553,17.581227436823106,10.878400352963391,21.756800705926782
2,305,0,../static/images/invador4.png,1,80,2,40.0,left,70,2,1195.0,0.899618765,0,0,2,9740.0,1110.0,8.774774774774775,17.54954954954955,10.669149833546005,21.33829966709201
2,306,0,../static/images/invador2.png,3,80,8,10.0,left,74,1,1214.0,0.976003066,0,0,2,9820.0,1114.0,8.81508078994614,70.52064631956912,10.921744670197802,87.37395736158241
2,307,0,../static/images/invador4.png,1,80,2,40.0,right,74,2,1248.0,1.112690762,0,0,2,9820.0,1116.0,8.799283154121865,17.59856630824373,10.711660404953749,21.423320809907498
2,308,0,../static/images/invador1.png,4,20,8,2.5,left,74,1,781.0,-0.764754942,0,0,2,9900.0,1120.0,8.839285714285714,70.71428571428571,10.962240367671377,87.69792294137102
2,309,0,../static/images/invador2.png,3,80,8,10.0,right,70,1,1050.0,0.316685945,0,0,2,9900.0,1122.0,8.823529411764707,70.58823529411765,10.751377150977149,86.01101720781719
2,310,0,../static/images/invador4.png,1,80,2,40.0,right,74,2,1034.0,0.252362323,0,0,2,9900.0,1124.0,8.807829181494663,17.615658362989326,10.544569975262078,21.089139950524157
2,311,0,../static/images/invador3.png,2,20,2,10.0,left,74,1,799.0,-0.692390868,0,0,2,9980.0,1128.0,8.847517730496454,17.69503546099291,10.803069524573955,21.60613904914791
2,312,0,../static/images/invador4.png,1,80,2,40.0,left,70,2,661.0,-1.247182104,1,0,2,9980.0,1130.0,8.831858407079647,17.663716814159294,10.595268024723525,21.19053604944705
2,313,0,../static/images/invador4.png,1,80,2,40.0,left,70,2,1194.0,0.895598539,0,0,2,10060.0,1134.0,8.871252204585538,17.742504409171076,10.851364638130514,21.702729276261028
2,314,0,../static/images/invador4.png,1,80,2,40.0,right,74,2,1236.0,1.064448045,0,0,2,10140.0,1138.0,8.9103690685413,17.8207381370826,11.09532303805566,22.19064607611132
2,315,0,../static/images/invador3.png,2,20,2,10.0,right,70,1,705.0,-1.070292144,0,0,2,10220.0,1142.0,8.949211908931698,17.898423817863396,11.3277185395122,22.6554370790244
2,316,0,../static/images/invador4.png,1,80,2,40.0,left,74,1,613.0,-1.440152968,2,0,2,10220.0,1144.0,8.933566433566433,17.867132867132867,11.109825199379596,22.219650398759192
2,317,0,../static/images/invador4.png,1,80,2,40.0,left,70,2,1297.0,1.309681852,0,0,2,10220.0,1146.0,8.917975567190227,17.835951134380455,10.896123127551244,21.792246255102487
3,0,0,../static/images/invador3.png,4,20,8,2.5,left,70,2,1029.0,0.52253978,0,0,1,0.0,2.0,0.0,0.0,7.7591395178653935,62.07311614292315
3,1,0,../static/images/invador2.png,1,80,2,40.0,right,70,1,802.0,-0.460717063,2,0,1,20.0,12.0,1.6666666666666667,3.3333333333333335,7.713640442175365,15.42728088435073
3,2,0,../static/images/invador4.png,2,20,2,10.0,right,74,2,1461.0,2.39375985,0,0,1,20.0,14.0,1.4285714285714286,2.857142857142857,7.702858736356186,15.405717472712372
3,3,0,../static/images/invador2.png,1,80,2,40.0,left,70,2,1354.0,1.930286361,0,0,1,40.0,18.0,2.2222222222222223,4.444444444444445,7.689933155716429,15.379866311432858
3,4,0,../static/images/invador2.png,1,80,2,40.0,right,74,2,1059.0,0.652485618,0,0,1,120.0,22.0,5.454545454545454,10.909090909090908,7.718941089548551,15.437882179097102
3,5,0,../static/images/invador2.png,1,80,2,40.0,right,74,2,900.0,-0.036227325,0,0,1,200.0,26.0,7.6923076923076925,15.384615384615385,7.747847765348291,15.495695530696581
3,6,0,../static/images/invador1.png,3,80,8,10.0,left,70,2,1025.0,0.505213668,0,0,1,280.0,30.0,9.333333333333334,74.66666666666667,7.776653536577192,62.213228292617536
3,7,0,../static/images/invador2.png,1,80,2,40.0,left,74,1,716.0,-0.833228466,2,0,1,360.0,40.0,9.0,18.0,7.772908637993749,15.545817275987497
3,8,0,../static/images/invador2.png,1,80,2,40.0,left,70,2,832.0,-0.330771225,0,0,1,360.0,42.0,8.571428571428571,17.142857142857142,7.762044090323625,15.52408818064725
3,9,0,../static/images/invador1.png,3,80,8,10.0,right,70,1,1213.0,1.319540921,0,0,1,440.0,46.0,9.565217391304348,76.52173913043478,7.790800306422458,62.326402451379664
3,10,0,../static/images/invador3.png,4,20,8,2.5,right,74,2,632.0,-1.197076813,1,0,1,440.0,48.0,9.166666666666666,73.33333333333333,7.779910750754223,62.23928600603379
3,11,0,../static/images/invador2.png,1,80,2,40.0,right,74,2,670.0,-1.032478751,1,0,1,460.0,58.0,7.931034482758621,15.862068965517242,7.73425249550164,15.46850499100328
3,12,0,../static/images/invador2.png,1,80,2,40.0,right,74,2,818.0,-0.391412616,0,0,1,540.0,62.0,8.709677419354838,17.419354838709676,7.7631057237566905,15.526211447513381
3,13,0,../static/images/invador4.png,2,20,2,10.0,left,74,1,834.0,-0.322108169,2,0,1,620.0,66.0,9.393939393939394,18.78787878787879,7.791858234010317,15.583716468020635
3,14,0,../static/images/invador1.png,3,80,8,10.0,right,74,0,NaN,NaN,0,1,1,620.0,68.0,9.117647058823529,72.94117647058823,7.780967199628612,62.247737597028895
3,15,0,../static/images/invador3.png,4,20,8,2.5,right,70,1,1166.0,1.115959108,0,0,1,620.0,78.0,7.948717948717949,63.58974358974359,7.72673994601738,61.81391956813904
3,16,0,../static/images/invador2.png,1,80,2,40.0,left,70,2,824.0,-0.365423448,0,0,1,620.0,80.0,7.75,15.5,7.715939930426329,15.431879860852659
3,17,0,../static/images/invador2.png,1,80,2,40.0,right,74,2,1047.0,0.600507283,0,0,1,700.0,84.0,8.333333333333334,16.666666666666668,7.744857082376124,15.489714164752248
3,18,0,../static/images/invador2.png,1,80,2,40.0,left,70,2,775.0,-0.577668317,0,0,1,780.0,88.0,8.863636363636363,17.727272727272727,7.77367329318597,15.54734658637194
3,19,0,../static/images/invador2.png,1,80,2,40.0,left,70,2,720.0,-0.815902354,0,0,1,860.0,92.0,9.347826086956522,18.695652173913043,7.802388915211237,15.604777830422474
3,20,0,../static/images/invador4.png,2,20,2,10.0,right,70,1,1236.0,1.419166064,0,0,1,940.0,96.0,9.791666666666666,19.583333333333332,7.831004299577324,15.662008599154648
3,21,0,../static/images/invador2.png,1,80,2,40.0,left,70,2,945.0,0.158691433,0,0,1,940.0,98.0,9.591836734693878,19.183673469387756,7.820058548960647,15.640117097921294
3,22,0,../static/images/invador3.png,4,20,8,2.5,left,74,1,990.0,0.35361019,0,0,1,1020.0,102.0,10.0,80.0,7.848612253913208,62.78889803130566
3,23,0,../static/images/invador4.png,2,20,2,10.0,left,74,1,223.0,-2.968671741,0,0,1,1020.0,104.0,9.807692307692308,19.615384615384617,7.8376418918585005,15.675283783717001
3,24,0,../static/images/invador2.png,1,80,2,40.0,right,74,2,777.0,-0.569005261,0,0,1,1020.0,106.0,9.622641509433961,19.245283018867923,7.826686863577423,15.653373727154847
3,25,0,../static/images/invador2.png,1,80,2,40.0,right,74,2,771.0,-0.594994429,0,0,1,1100.0,110.0,10.0,20.0,7.855217431063524,15.710434862127048
3,26,0,../static/images/invador1.png,3,80,8,10.0,left,70,2,707.0,-0.872212217,1,0,1,1180.0,114.0,10.350877192982455,82.80701754385964,7.883648406860567,63.06918725488453
3,27,0,../static/images/invador2.png,1,80,2,40.0,right,74,0,NaN,NaN,0,1,1,1260.0,124.0,10.161290322580646,20.322580645161292,7.87908355711012,15.75816711422024
3,28,0,../static/images/invador3.png,4,20,8,2.5,right,70,1,953.0,0.193343656,0,0,1,1260.0,134.0,9.402985074626866,75.22388059701493,7.824172509252745,62.59338007402196
3,29,0,../static/images/invador2.png,1,80,2,40.0,right,74,2,811.0,-0.421733311,0,0,1,1260.0,136.0,9.264705882352942,18.529411764705884,7.813236307739898,15.626472615479797
3,30,0,../static/images/invador4.png,2,20,2,10.0,left,74,1,896.0,-0.053553436,0,0,1,1340.0,140.0,9.571428571428571,19.142857142857142,7.841813827098767,15.683627654197535
3,31,0,../static/images/invador1.png,3,80,8,10.0,right,70,1,841.0,-0.291787473,0,0,1,1340.0,142.0,9.43661971830986,75.49295774647888,7.830852967514198,62.64682374011358
3,32,0,../static/images/invador2.png,1,80,2,40.0,left,70,2,836.0,-0.313445113,0,0,1,1340.0,144.0,9.305555555555555,18.61111111111111,7.819907428421223,15.639814856842445
3,33,0,../static/images/invador2.png,1,80,2,40.0,left,70,2,917.0,0.03740865,1,0,1,1420.0,148.0,9.594594594594595,19.18918918918919,7.848461660890447,15.696923321780893
3,34,0,../static/images/invador2.png,1,80,2,40.0,left,74,1,644.0,-1.145098478,2,0,1,1500.0,152.0,9.868421052631579,19.736842105263158,7.876916219063227,15.753832438126453
3,35,0,../static/images/invador2.png,1,80,2,40.0,right,70,1,699.0,-0.906864441,2,0,1,1500.0,154.0,9.74025974025974,19.48051948051948,7.865906295270057,15.731812590540114
3,36,0,../static/images/invador2.png,1,80,2,40.0,right,74,2,890.0,-0.079542604,0,0,1,1500.0,156.0,9.615384615384615,19.23076923076923,7.854911760547758,15.709823521095515
3,37,0,../static/images/invador2.png,1,80,2,40.0,left,70,2,666.0,-1.049804863,0,0,1,1580.0,160.0,9.875,19.75,7.883343803349267,15.766687606698534
3,38,0,../static/images/invador2.png,1,80,2,40.0,left,70,2,600.0,-1.335685707,0,0,1,1660.0,164.0,10.121951219512194,20.24390243902439,7.9116765983819635,15.823353196763927
3,39,0,../static/images/invador1.png,3,80,8,10.0,right,74,2,492.0,-1.803490725,1,0,1,1740.0,168.0,10.357142857142858,82.85714285714286,7.9399104920901635,63.51928393672131
3,40,0,../static/images/invador3.png,4,20,8,2.5,left,74,1,926.0,0.076392402,0,0,1,1820.0,178.0,10.224719101123595,81.79775280898876,7.934914479964179,63.47931583971343
3,41,0,../static/images/invador4.png,2,20,2,10.0,right,74,2,741.0,-0.724940267,0,0,1,1820.0,180.0,10.11111111111111,20.22222222222222,7.923823489365817,15.847646978731634
3,42,0,../static/images/invador2.png,1,80,2,40.0,right,74,2,934.0,0.111044625,0,0,1,1840.0,184.0,10.0,20.0,7.9101265867751325,15.820253173550265
3,43,0,../static/images/invador3.png,4,20,8,2.5,right,74,2,702.0,-0.893869857,1,0,1,1920.0,188.0,10.212765957446809,81.70212765957447,7.938365891110866,63.50692712888693
3,44,0,../static/images/invador2.png,1,80,2,40.0,right,74,2,1249.0,1.475475927,0,0,1,1940.0,198.0,9.797979797979798,19.595959595959595,7.891493320845714,15.782986641691428
3,45,0,../static/images/invador2.png,1,80,2,40.0,right,74,2,757.0,-0.65563582,0,0,1,2020.0,202.0,10.0,20.0,7.91979766834708,15.83959533669416
3,46,0,../static/images/invador1.png,3,80,8,10.0,right,74,2,1467.0,2.419749018,0,0,1,2100.0,206.0,10.194174757281553,81.55339805825243,7.948003213825782,63.584025710606255
3,47,0,../static/images/invador4.png,2,20,2,10.0,right,70,1,992.0,0.362273246,0,0,1,2180.0,216.0,10.092592592592593,20.185185185185187,7.9429451834309415,15.885890366861883
3,48,0,../static/images/invador2.png,1,80,2,40.0,left,70,2,1368.0,1.990927752,0,0,1,2180.0,218.0,10.0,20.0,7.931842967953361,15.863685935906721
3,49,0,../static/images/invador2.png,1,80,2,40.0,right,70,1,710.0,-0.859217633,2,0,1,2260.0,222.0,10.18018018018018,20.36036036036036,7.960006466889051,15.920012933778102
3,50,0,../static/images/invador2.png,1,80,2,40.0,right,70,1,644.0,-1.145098478,2,0,1,2260.0,224.0,10.089285714285714,20.178571428571427,7.948880404080171,15.897760808160342
3,51,0,../static/images/invador2.png,1,80,2,40.0,left,70,2,1273.0,1.579432598,0,0,1,2260.0,226.0,10.0,20.0,7.937769892674942,15.875539785349885
3,52,0,../static/images/invador2.png,1,80,2,40.0,right,74,2,1096.0,0.812752152,0,0,1,2340.0,230.0,10.173913043478262,20.347826086956523,7.965912702486792,15.931825404973583
3,53,0,../static/images/invador1.png,3,80,8,10.0,left,74,1,639.0,-1.166756117,2,0,1,2420.0,234.0,10.341880341880342,82.73504273504274,7.993957274155802,63.951658193246416
3,54,0,../static/images/invador4.png,2,20,2,10.0,right,74,0,NaN,NaN,0,1,1,2420.0,236.0,10.254237288135593,20.508474576271187,7.982783756760593,15.965567513521187
3,55,0,../static/images/invador3.png,4,20,8,2.5,right,70,1,1008.0,0.431577693,0,0,1,2420.0,246.0,9.83739837398374,78.69918699186992,7.927149999645909,63.41719999716727
3,56,0,../static/images/invador4.png,2,20,2,10.0,right,70,1,732.0,-0.763924019,2,0,1,2420.0,248.0,9.758064516129032,19.516129032258064,7.916069861814571,15.832139723629142
3,57,0,../static/images/invador2.png,1,80,2,40.0,left,70,2,857.0,-0.222483026,0,0,1,2420.0,250.0,9.68,19.36,7.905005211195456,15.810010422390912
3,58,0,../static/images/invador2.png,1,80,2,40.0,left,70,2,960.0,0.223664352,0,0,1,2500.0,254.0,9.84251968503937,19.68503937007874,7.93326239272359,15.86652478544718
3,59,0,../static/images/invador2.png,1,80,2,40.0,right,74,2,766.0,-0.616652069,0,0,1,2580.0,258.0,10.0,20.0,7.961420936871385,15.92284187374277
3,60,0,../static/images/invador1.png,3,80,8,10.0,right,70,1,865.0,-0.187830803,0,0,1,2660.0,262.0,10.15267175572519,81.22137404580153,7.9894811879524745,63.915849503619796
3,61,0,../static/images/invador3.png,4,20,8,2.5,left,74,1,895.0,-0.057884964,0,0,1,2660.0,264.0,10.075757575757576,80.60606060606061,7.978313926986384,63.82651141589107
3,62,0,../static/images/invador2.png,1,80,2,40.0,right,74,0,NaN,NaN,0,1,1,2660.0,266.0,10.0,20.0,7.96716227500848,15.93432455001696
3,63,0,../static/images/invador4.png,2,20,2,10.0,right,70,1,808.0,-0.434727895,2,0,1,2660.0,276.0,9.63768115942029,19.27536231884058,7.911637387399479,15.823274774798959
3,64,0,../static/images/invador2.png,1,80,2,40.0,right,74,2,1263.0,1.536117318,0,0,1,2660.0,278.0,9.568345323741006,19.136690647482013,7.900578932251303,15.801157864502606
3,65,0,../static/images/invador2.png,1,80,2,40.0,left,74,1,840.0,-0.296119001,2,0,1,2740.0,282.0,9.71631205673759,19.43262411347518,7.928851564597109,15.857703129194219
3,66,0,../static/images/invador3.png,4,20,8,2.5,right,70,1,938.0,0.128370737,0,0,1,2740.0,284.0,9.647887323943662,77.1830985915493,7.917769048411106,63.34215238728885
3,67,0,../static/images/invador2.png,1,80,2,40.0,left,70,2,907.0,-0.005906629,0,0,1,2740.0,286.0,9.58041958041958,19.16083916083916,7.906702022761659,15.813404045523319
3,68,0,../static/images/invador1.png,3,80,8,10.0,left,74,1,1054.0,0.630827978,0,0,1,2820.0,290.0,9.724137931034482,77.79310344827586,7.934953281227452,63.47962624981962
3,69,0,../static/images/invador2.png,1,80,2,40.0,left,70,2,837.0,-0.309113585,0,0,1,2820.0,292.0,9.657534246575343,19.315068493150687,7.9238622363948,15.8477244727896
3,70,0,../static/images/invador4.png,2,20,2,10.0,left,74,1,979.0,0.305963383,0,0,1,2900.0,296.0,9.797297297297296,19.594594594594593,7.952053593680529,15.904107187361058
3,71,0,../static/images/invador2.png,1,80,2,40.0,left,70,2,677.0,-1.002158056,1,0,1,2900.0,298.0,9.731543624161073,19.463087248322147,7.940938646963978,15.881877293927957
3,72,0,../static/images/invador1.png,3,80,8,10.0,right,70,1,1266.0,1.549111902,0,0,1,2980.0,302.0,9.867549668874172,78.94039735099338,7.969070395601107,63.752563164808855
3,73,0,../static/images/invador2.png,1,80,2,40.0,left,70,2,935.0,0.115376153,0,0,1,2980.0,304.0,9.802631578947368,19.605263157894736,7.957931663727124,15.915863327454248
3,74,0,../static/images/invador2.png,1,80,2,40.0,right,74,2,728.0,-0.781250131,0,0,1,3060.0,308.0,9.935064935064934,19.87012987012987,7.986004094818521,15.972008189637043
3,75,0,../static/images/invador3.png,4,20,8,2.5,left,70,2,1450.0,2.346113043,0,0,1,3140.0,312.0,10.064102564102564,80.51282051282051,8.013978533438168,64.11182826750535
3,76,0,../static/images/invador2.png,1,80,2,40.0,right,74,2,1238.0,1.42782912,0,0,1,3160.0,322.0,9.813664596273291,19.627329192546583,7.966526508530453,15.933053017060907
3,77,0,../static/images/invador2.png,1,80,2,40.0,right,74,0,NaN,NaN,1,1,1,3240.0,326.0,9.938650306748466,19.87730061349693,7.994568937585909,15.989137875171817
3,78,0,../static/images/invador2.png,1,80,2,40.0,left,70,2,1053.0,0.62649645,0,0,1,3240.0,336.0,9.642857142857142,19.285714285714285,7.93885304698151,15.87770609396302
3,79,0,../static/images/invador1.png,3,80,8,10.0,left,70,2,685.0,-0.967505832,1,0,1,3320.0,340.0,9.764705882352942,78.11764705882354,7.966992075825212,63.7359366066017
3,80,0,../static/images/invador4.png,2,20,2,10.0,left,74,1,1130.0,0.960024102,0,0,1,3400.0,350.0,9.714285714285714,19.428571428571427,7.961788525000139,15.923577050000278
3,81,0,../static/images/invador3.png,4,20,8,2.5,right,74,2,571.0,-1.461300017,1,0,1,3400.0,352.0,9.659090909090908,77.27272727272727,7.950659971327646,63.605279770621166
3,82,0,../static/images/invador2.png,1,80,2,40.0,right,74,2,1297.0,1.683389268,0,0,1,3420.0,362.0,9.447513812154696,18.895027624309392,7.903693185840827,15.807386371681654
3,83,0,../static/images/invador2.png,1,80,2,40.0,left,70,2,985.0,0.33195255,0,0,1,3500.0,366.0,9.562841530054644,19.12568306010929,7.931954947257575,15.86390989451515
3,84,0,../static/images/invador2.png,1,80,2,40.0,right,74,2,781.0,-0.55167915,0,0,1,3580.0,370.0,9.675675675675675,19.35135135135135,7.96011805530696,15.92023611061392
3,85,0,../static/images/invador2.png,1,80,2,40.0,left,70,2,871.0,-0.161841635,0,0,1,3660.0,374.0,9.786096256684491,19.572192513368982,7.988182854358423,15.976365708716846
3,86,0,../static/images/invador2.png,1,80,2,40.0,left,70,2,1065.0,0.678474786,0,0,1,3740.0,378.0,9.894179894179894,19.788359788359788,8.01614968757931,16.03229937515862
3,87,0,../static/images/invador2.png,1,80,2,40.0,right,74,2,870.0,-0.166173163,0,0,1,3820.0,382.0,10.0,20.0,8.04401889693907,16.08803779387814
3,88,0,../static/images/invador4.png,2,20,2,10.0,left,70,2,876.0,-0.140183995,0,0,1,3900.0,386.0,10.103626943005182,20.207253886010363,8.071790823213446,16.14358164642689
3,89,0,../static/images/invador3.png,4,20,8,2.5,right,70,1,1084.0,0.760773817,0,0,1,3920.0,390.0,10.051282051282051,80.41025641025641,8.057577410857913,64.4606192868633
3,90,0,../static/images/invador1.png,3,80,8,10.0,left,74,1,928.0,0.085055458,0,0,1,3920.0,392.0,10.0,80.0,8.046314968706199,64.37051974964959
3,91,0,../static/images/invador2.png,1,80,2,40.0,right,70,1,652.0,-1.110446254,2,0,1,3920.0,394.0,9.949238578680204,19.898477157360407,8.035068268581739,16.070136537163478
3,92,0,../static/images/invador2.png,1,80,2,40.0,left,70,2,1232.0,1.401839952,0,0,1,3920.0,396.0,9.8989898989899,19.7979797979798,8.02383728848119,16.04767457696238
3,93,0,../static/images/invador2.png,1,80,2,40.0,right,74,2,955.0,0.202006712,0,0,1,4000.0,400.0,10.0,20.0,8.051679662722478,16.103359325444956
3,94,0,../static/images/invador3.png,4,20,8,2.5,left,74,1,881.0,-0.118526355,0,0,1,4080.0,404.0,10.099009900990099,80.79207920792079,8.079424847551763,64.6353987804141
3,95,0,../static/images/invador4.png,2,20,2,10.0,right,70,1,944.0,0.154359905,0,0,1,4080.0,406.0,10.049261083743842,20.098522167487683,8.06813186824485,16.1362637364897
3,96,0,../static/images/invador2.png,1,80,2,40.0,left,70,2,1063.0,0.66981173,0,0,1,4080.0,408.0,10.0,20.0,8.05685467364836,16.11370934729672
3,97,0,../static/images/invador1.png,3,80,8,10.0,right,70,1,835.0,-0.317776641,0,0,1,4160.0,412.0,10.097087378640778,80.77669902912622,8.084581794060272,64.67665435248217
3,98,0,../static/images/invador2.png,1,80,2,40.0,left,70,2,949.0,0.176017545,0,0,1,4160.0,414.0,10.048309178743962,20.096618357487923,8.073281606654847,16.146563213309694
3,99,0,../static/images/invador1.png,3,80,8,10.0,left,74,1,687.0,-0.958842776,0,0,1,4240.0,418.0,10.14354066985646,81.14832535885168,8.100951385550331,64.80761108440265
3,100,0,../static/images/invador2.png,1,80,2,40.0,right,74,2,1032.0,0.535534364,0,0,1,4240.0,420.0,10.095238095238095,20.19047619047619,8.089628317622907,16.179256635245814
3,101,0,../static/images/invador3.png,4,20,8,2.5,left,70,2,726.0,-0.789913186,1,0,1,4320.0,424.0,10.18867924528302,81.50943396226415,8.117241035033137,64.9379282802651
3,102,0,../static/images/invador2.png,1,80,2,40.0,left,70,2,1191.0,1.224247306,0,0,1,4340.0,434.0,10.0,20.0,8.068997661825584,16.137995323651168
3,103,0,../static/images/invador4.png,2,20,2,10.0,right,70,1,787.0,-0.525689982,2,0,1,4420.0,438.0,10.091324200913242,20.182648401826484,8.09668239469286,16.19336478938572
3,104,0,../static/images/invador2.png,1,80,2,40.0,left,70,2,750.0,-0.685956516,0,0,1,4420.0,440.0,10.045454545454545,20.09090909090909,8.085365293727977,16.170730587455953
3,105,0,../static/images/invador4.png,2,20,2,10.0,left,70,2,1212.0,1.315209393,0,0,1,4500.0,444.0,10.135135135135135,20.27027027027027,8.112992892081268,16.225985784162535
3,106,0,../static/images/invador1.png,3,80,8,10.0,right,70,1,796.0,-0.486706231,0,0,1,4520.0,448.0,10.089285714285714,80.71428571428571,8.098635655610313,64.7890852448825
3,107,0,../static/images/invador2.png,1,80,2,40.0,left,70,2,940.0,0.137033793,0,0,1,4520.0,450.0,10.044444444444444,20.08888888888889,8.087315824483872,16.174631648967743
3,108,0,../static/images/invador2.png,1,80,2,40.0,right,74,2,1309.0,1.735367603,0,0,1,4600.0,454.0,10.13215859030837,20.26431718061674,8.114936614116914,16.229873228233828
3,109,0,../static/images/invador3.png,4,20,8,2.5,left,74,1,1199.0,1.25889953,0,0,1,4680.0,458.0,10.218340611353712,81.7467248908297,8.142460987823636,65.13968790258909
3,110,0,../static/images/invador2.png,1,80,2,40.0,left,70,2,1202.0,1.271894114,0,0,1,4680.0,460.0,10.173913043478262,20.347826086956523,8.131079900038568,16.262159800077136
3,111,0,../static/images/invador2.png,1,80,2,40.0,right,74,2,1454.0,2.363439155,0,0,1,4760.0,464.0,10.258620689655173,20.517241379310345,8.158547922356112,16.317095844712224
3,112,0,../static/images/invador2.png,1,80,2,40.0,right,74,2,1495.0,2.5410318,0,0,1,4840.0,468.0,10.341880341880342,20.683760683760685,8.1859200620124,16.3718401240248
3,113,0,../static/images/invador2.png,1,80,2,40.0,left,70,2,1482.0,2.484721937,0,0,1,4920.0,472.0,10.423728813559322,20.847457627118644,8.213196653705163,16.426393307410326
3,114,0,../static/images/invador2.png,1,80,2,40.0,right,74,2,1009.0,0.435909221,0,0,1,5000.0,476.0,10.504201680672269,21.008403361344538,8.2403780309638,16.4807560619276
3,115,0,../static/images/invador3.png,4,20,8,2.5,left,74,1,1125.0,0.938366462,0,0,1,5080.0,480.0,10.583333333333334,84.66666666666667,8.267464526153466,66.13971620922773
3,116,0,../static/images/invador2.png,1,80,2,40.0,left,74,1,663.0,-1.062799447,2,0,1,5080.0,482.0,10.53941908713693,21.07883817427386,8.255908715241654,16.51181743048331
3,117,0,../static/images/invador1.png,3,80,8,10.0,right,70,1,1102.0,0.83874132,0,0,1,5080.0,484.0,10.49586776859504,83.96694214876032,8.244369056411946,65.95495245129557
3,118,0,../static/images/invador4.png,2,20,2,10.0,left,70,2,1316.0,1.765688299,0,0,1,5080.0,486.0,10.452674897119342,20.905349794238685,8.232845527087845,16.46569105417569
3,119,0,../static/images/invador2.png,1,80,2,40.0,left,70,2,1387.0,2.073226783,0,0,1,5100.0,490.0,10.408163265306122,20.816326530612244,8.218069920867876,16.436139841735752
3,120,0,../static/images/invador4.png,2,20,2,10.0,left,70,2,1040.0,0.570186587,0,0,1,5180.0,494.0,10.48582995951417,20.97165991902834,8.245234287006486,16.490468574012972
3,121,0,../static/images/invador2.png,1,80,2,40.0,left,70,2,1256.0,1.505796623,0,0,1,5200.0,498.0,10.441767068273093,20.883534136546185,8.230415435326146,16.46083087065229
3,122,0,../static/images/invador3.png,4,20,8,2.5,right,74,2,788.0,-0.521358454,1,0,1,5280.0,502.0,10.51792828685259,84.14342629482071,8.257536706961371,66.06029365569097
3,123,0,../static/images/invador1.png,3,80,8,10.0,right,74,2,1029.0,0.52253978,1,0,1,5300.0,512.0,10.3515625,82.8125,8.208218183145027,65.66574546516021
3,124,0,../static/images/invador2.png,1,80,2,40.0,right,74,0,NaN,NaN,0,1,1,5380.0,522.0,10.306513409961687,20.613026819923373,8.20116600511302,16.40233201022604
3,125,0,../static/images/invador2.png,1,80,2,40.0,right,74,2,1044.0,0.587512699,0,0,1,5380.0,532.0,10.112781954887218,20.225563909774436,8.144010294587948,16.288020589175897
3,126,0,../static/images/invador1.png,3,80,8,10.0,left,74,1,1302.0,1.705046908,0,0,1,5460.0,536.0,10.186567164179104,81.49253731343283,8.171433180760408,65.37146544608326
3,127,0,../static/images/invador2.png,1,80,2,40.0,left,70,2,933.0,0.106713097,0,0,1,5460.0,538.0,10.148698884758364,20.297397769516728,8.16001159722453,16.32002319444906
3,128,0,../static/images/invador4.png,2,20,2,10.0,left,70,2,1118.0,0.908045767,0,0,1,5540.0,542.0,10.22140221402214,20.44280442804428,8.187378627629052,16.374757255258103
3,129,0,../static/images/invador2.png,1,80,2,40.0,left,70,2,1281.0,1.614084821,0,0,1,5560.0,546.0,10.183150183150182,20.366300366300365,8.1727617327742,16.3455234655484
3,130,0,../static/images/invador3.png,4,20,8,2.5,left,70,2,762.0,-0.633978181,1,0,1,5640.0,550.0,10.254545454545454,82.03636363636363,8.20008425626396,65.60067405011168
3,131,0,../static/images/invador2.png,1,80,2,40.0,left,70,2,1093.0,0.799757568,0,0,1,5660.0,560.0,10.107142857142858,20.214285714285715,8.151206017144174,16.30241203428835
3,132,0,../static/images/invador2.png,1,80,2,40.0,left,74,1,53.0,-3.705031491,2,0,1,5740.0,564.0,10.177304964539006,20.354609929078013,8.178603785198542,16.357207570397083
3,133,0,../static/images/invador1.png,3,80,8,10.0,left,70,2,1123.0,0.929703406,0,0,1,5740.0,566.0,10.141342756183745,81.13074204946996,8.167172178982947,65.33737743186357
3,134,0,../static/images/invador3.png,4,20,8,2.5,left,74,1,962.0,0.232327408,0,0,1,5820.0,576.0,10.104166666666666,80.83333333333333,8.160434555461118,65.28347644368894
3,135,0,../static/images/invador2.png,1,80,2,40.0,right,74,2,1185.0,1.198258139,0,0,1,5820.0,578.0,10.069204152249135,20.13840830449827,8.149028345203691,16.298056690407382
3,136,0,../static/images/invador2.png,1,80,2,40.0,left,74,1,608.0,-1.301033483,2,0,1,5900.0,582.0,10.137457044673539,20.274914089347078,8.176433714860336,16.35286742972067
3,137,0,../static/images/invador4.png,2,20,2,10.0,left,70,2,1089.0,0.782431456,0,0,1,5900.0,584.0,10.102739726027398,20.205479452054796,8.16500514185068,16.33001028370136
3,138,0,../static/images/invador2.png,1,80,2,40.0,left,70,2,1078.0,0.734784649,0,0,1,5920.0,588.0,10.068027210884354,20.13605442176871,8.150466346151758,16.300932692303515
3,139,0,../static/images/invador2.png,1,80,2,40.0,left,74,1,633.0,-1.192745285,2,0,1,6000.0,592.0,10.135135135135135,20.27027027027027,8.17786669617662,16.35573339235324
3,140,0,../static/images/invador2.png,1,80,2,40.0,left,70,2,982.0,0.318957967,0,0,1,6000.0,594.0,10.1010101010101,20.2020202020202,8.166436120223851,16.332872240447703
3,141,0,../static/images/invador2.png,1,80,2,40.0,right,74,2,948.0,0.171686017,0,0,1,6080.0,598.0,10.167224080267559,20.334448160535118,8.193780724537575,16.38756144907515
3,142,1,../static/images/invador3.png,4,20,8,2.5,left,74,1,1298.0,1.687720796,0,0,1,6160.0,602.0,10.232558139534884,81.86046511627907,8.22102987700543,65.76823901604344
3,143,1,../static/images/invador3.png,4,20,8,2.5,right,70,1,788.0,-0.521358454,0,0,1,6160.0,604.0,10.198675496688741,81.58940397350993,8.209538969913115,65.67631175930492
3,144,1,../static/images/invador3.png,4,20,8,2.5,left,74,1,819.0,-0.387081088,0,0,1,6160.0,606.0,10.165016501650165,81.32013201320132,8.198064124183889,65.58451299347111
3,145,1,../static/images/invador4.png,2,20,2,10.0,right,74,2,750.0,-0.685956516,1,0,1,6160.0,608.0,10.131578947368421,20.263157894736842,8.18660531736805,16.3732106347361
3,146,1,../static/images/invador1.png,3,80,8,10.0,right,70,1,1003.0,0.409920053,0,0,1,6180.0,612.0,10.098039215686274,80.7843137254902,8.171991121908334,65.37592897526667
3,147,1,../static/images/invador2.png,1,80,2,40.0,right,74,2,843.0,-0.283124417,0,0,1,6180.0,614.0,10.06514657980456,20.13029315960912,8.160568758512756,16.321137517025512
3,148,1,../static/images/invador3.png,4,20,8,2.5,right,70,1,932.0,0.10238157,0,0,1,6260.0,618.0,10.129449838187702,81.03559870550161,8.18793384403364,65.50347075226912
3,149,1,../static/images/invador1.png,3,80,8,10.0,right,70,1,1220.0,1.349861617,0,0,1,6260.0,620.0,10.096774193548388,80.7741935483871,8.176489196770776,65.4119135741662
3,150,1,../static/images/invador3.png,4,20,8,2.5,left,74,1,959.0,0.219332824,0,0,1,6260.0,622.0,10.064308681672026,80.51446945337621,8.165060546211532,65.32048436969225
3,151,1,../static/images/invador3.png,4,20,8,2.5,right,70,1,833.0,-0.326439697,0,0,1,6260.0,624.0,10.032051282051283,80.25641025641026,8.153647869996588,65.2291829599727
3,152,1,../static/images/invador4.png,2,20,2,10.0,left,74,1,494.0,-1.794827669,2,0,1,6260.0,626.0,10.0,20.0,8.14225114579788,16.28450229159576
3,153,1,../static/images/invador3.png,4,20,8,2.5,right,70,1,799.0,-0.473711647,0,0,1,6260.0,628.0,9.968152866242038,79.7452229299363,8.130870351318547,65.04696281054838
3,154,1,../static/images/invador3.png,4,20,8,2.5,left,74,1,891.0,-0.075211076,0,0,1,6260.0,630.0,9.936507936507937,79.4920634920635,8.119505464292898,64.95604371434318
3,155,1,../static/images/invador2.png,1,80,2,40.0,left,70,2,803.0,-0.456385535,0,0,1,6260.0,632.0,9.905063291139241,19.810126582278482,8.108156462486361,16.216312924972723
3,156,1,../static/images/invador3.png,4,20,8,2.5,right,70,1,816.0,-0.400075672,0,0,1,6340.0,636.0,9.968553459119496,79.74842767295597,8.135704503677204,65.08563602941763
3,157,1,../static/images/invador3.png,4,20,8,2.5,right,70,1,848.0,-0.261466778,0,0,1,6340.0,638.0,9.93730407523511,79.49843260188088,8.124332859737098,64.99466287789679
3,158,1,../static/images/invador3.png,4,20,8,2.5,left,74,1,660.0,-1.075794031,0,0,1,6340.0,640.0,9.90625,79.25,8.112977110460552,64.90381688368441
3,159,1,../static/images/invador1.png,3,80,8,10.0,left,74,1,837.0,-0.309113585,0,0,1,6340.0,642.0,9.87538940809969,79.00311526479751,8.10163723363087,64.81309786904696
3,160,1,../static/images/invador4.png,2,20,2,10.0,left,70,2,729.0,-0.776918603,0,0,1,6340.0,644.0,9.84472049689441,19.68944099378882,8.090313207062414,16.180626414124827
3,161,1,../static/images/invador3.png,4,20,8,2.5,left,74,1,704.0,-0.885206801,1,0,1,6360.0,648.0,9.814814814814815,78.51851851851852,8.076035138597472,64.60828110877978
3,162,1,../static/images/invador4.png,2,20,2,10.0,right,74,0,NaN,NaN,0,1,1,6360.0,650.0,9.784615384615385,19.56923076923077,8.06474689724082,16.12949379448164
3,163,1,../static/images/invador3.png,4,20,8,2.5,right,70,1,1045.0,0.591844227,0,0,1,6360.0,660.0,9.636363636363637,77.0909090909091,8.008541921164333,64.06833536931467
3,164,1,../static/images/invador3.png,4,20,8,2.5,left,74,1,1005.0,0.418583109,0,0,1,6360.0,662.0,9.607250755287009,76.85800604229607,7.997348018145151,63.97878414516121
3,165,1,../static/images/invador2.png,1,80,2,40.0,left,70,2,1120.0,0.916708822,0,0,1,6360.0,664.0,9.578313253012048,19.156626506024097,7.986169761352964,15.972339522705928
3,166,1,../static/images/invador1.png,3,80,8,10.0,left,74,1,990.0,0.35361019,0,0,1,6440.0,668.0,9.640718562874252,77.12574850299401,8.014143621680224,64.1131489734418
3,167,1,../static/images/invador3.png,4,20,8,2.5,left,74,1,831.0,-0.335102753,0,0,1,6440.0,670.0,9.611940298507463,76.8955223880597,8.002941888909643,64.02353511127714
3,168,1,../static/images/invador4.png,2,20,2,10.0,right,74,0,NaN,NaN,0,1,1,6440.0,672.0,9.583333333333334,19.166666666666668,7.991755813310055,15.98351162662011
3,169,1,../static/images/invador3.png,4,20,8,2.5,right,70,1,1377.0,2.029911503,0,0,1,6440.0,682.0,9.442815249266863,75.5425219941349,7.93605952798089,63.48847622384712
3,170,1,../static/images/invador1.png,3,80,8,10.0,right,70,1,899.0,-0.040558853,0,0,1,6440.0,684.0,9.415204678362572,75.32163742690058,7.924966936896874,63.399735495174994
3,171,1,../static/images/invador3.png,4,20,8,2.5,right,70,1,789.0,-0.517026926,0,0,1,6440.0,686.0,9.387755102040817,75.10204081632654,7.913889850431557,63.31111880345246
3,172,1,../static/images/invador2.png,1,80,2,40.0,left,70,2,1082.0,0.752110761,0,0,1,6440.0,688.0,9.36046511627907,18.72093023255814,7.9028282469134306,15.805656493826861
3,173,1,../static/images/invador3.png,4,20,8,2.5,right,74,0,NaN,NaN,1,1,1,6520.0,692.0,9.421965317919074,75.3757225433526,7.931093027573618,63.44874422058894
3,174,1,../static/images/invador3.png,4,20,8,2.5,left,74,1,1147.0,1.033660077,0,0,1,6520.0,702.0,9.287749287749287,74.3019943019943,7.875819514398929,63.00655611519143
3,175,1,../static/images/invador3.png,4,20,8,2.5,left,74,1,1000.0,0.39692547,0,0,1,6520.0,704.0,9.261363636363637,74.0909090909091,7.864811123519712,62.9184889881577
3,176,1,../static/images/invador3.png,4,20,8,2.5,right,70,1,791.0,-0.50836387,0,0,1,6520.0,706.0,9.23512747875354,73.88101983002832,7.853818119568742,62.830544956549936
3,177,1,../static/images/invador4.png,2,20,2,10.0,right,74,2,766.0,-0.616652069,0,0,1,6520.0,708.0,9.209039548022599,18.418079096045197,7.842840481039009,15.685680962078019
3,178,1,../static/images/invador3.png,4,20,8,2.5,left,74,1,967.0,0.253985047,0,0,1,6540.0,712.0,9.185393258426966,73.48314606741573,7.829426265940895,62.63541012752716
3,179,1,../static/images/invador2.png,1,80,2,40.0,right,74,2,963.0,0.236658936,0,0,1,6540.0,714.0,9.159663865546218,18.319327731092436,7.818482721013551,15.636965442027101
3,180,1,../static/images/invador3.png,4,20,8,2.5,right,70,1,1325.0,1.80467205,0,0,1,6620.0,718.0,9.220055710306406,73.76044568245125,7.8470419267107765,62.77633541368621
3,181,1,../static/images/invador1.png,3,80,8,10.0,left,74,1,956.0,0.20633824,0,0,1,6620.0,720.0,9.194444444444445,73.55555555555556,7.83607375957377,62.68859007659016
3,182,1,../static/images/invador1.png,3,80,8,10.0,right,70,1,687.0,-0.958842776,2,0,1,6620.0,722.0,9.168975069252078,73.35180055401662,7.825120923142457,62.600967385139654
3,183,1,../static/images/invador3.png,4,20,8,2.5,right,70,1,1030.0,0.526871308,0,0,1,6620.0,724.0,9.143646408839778,73.14917127071823,7.8141833959884135,62.51346716790731
3,184,1,../static/images/invador4.png,2,20,2,10.0,left,70,2,1042.0,0.578849643,0,0,1,6620.0,726.0,9.118457300275482,18.236914600550964,7.803261156713167,15.606522313426334
3,185,1,../static/images/invador3.png,4,20,8,2.5,right,70,1,708.0,-0.867880689,2,0,1,6640.0,730.0,9.095890410958905,72.76712328767124,7.78998510121399,62.31988080971192
3,186,1,../static/images/invador3.png,4,20,8,2.5,right,70,1,1221.0,1.354193145,0,0,1,6640.0,732.0,9.07103825136612,72.56830601092896,7.779096684995125,62.232773479961
3,187,1,../static/images/invador2.png,1,80,2,40.0,right,74,2,887.0,-0.092537188,0,0,1,6640.0,734.0,9.046321525885558,18.092643051771116,7.76822348801047,15.53644697602094
3,188,1,../static/images/invador3.png,4,20,8,2.5,left,74,1,870.0,-0.166173163,0,0,1,6720.0,738.0,9.105691056910569,72.84552845528455,7.796958133677756,62.37566506942205
3,189,1,../static/images/invador3.png,4,20,8,2.5,left,74,1,942.0,0.145696849,0,0,1,6720.0,740.0,9.08108108108108,72.64864864864865,7.786059970934503,62.288479767476026
3,190,1,../static/images/invador3.png,4,20,8,2.5,right,70,1,853.0,-0.239809138,0,0,1,6720.0,742.0,9.056603773584905,72.45283018867924,7.775177041048621,62.201416328388966
3,191,1,../static/images/invador3.png,4,20,8,2.5,left,74,1,645.0,-1.14076695,0,0,1,6720.0,744.0,9.03225806451613,72.25806451612904,7.764309322728453,62.11447458182762
3,192,1,../static/images/invador3.png,4,20,8,2.5,left,74,1,778.0,-0.564673733,0,0,1,6720.0,746.0,9.00804289544236,72.06434316353888,7.753456794712102,62.02765435769682
3,193,1,../static/images/invador1.png,3,80,8,10.0,right,70,1,904.0,-0.018901213,0,0,1,6720.0,748.0,8.983957219251337,71.8716577540107,7.7426194357673905,61.940955486139124
3,194,1,../static/images/invador2.png,1,80,2,40.0,right,74,2,1026.0,0.509545196,0,0,1,6720.0,750.0,8.96,17.92,7.731797224691817,15.463594449383635
3,195,1,../static/images/invador4.png,2,20,2,10.0,left,70,2,1190.0,1.219915778,0,0,1,6800.0,754.0,9.018567639257295,18.03713527851459,7.760659023563879,15.521318047127759
3,196,1,../static/images/invador3.png,4,20,8,2.5,right,70,1,1088.0,0.778099928,0,0,1,6820.0,758.0,8.997361477572559,71.97889182058047,7.747531679386337,61.980253435090695
3,197,1,../static/images/invador1.png,3,80,8,10.0,right,70,1,714.0,-0.841891522,0,0,1,6820.0,760.0,8.973684210526315,71.78947368421052,7.736702602244604,61.89362081795683
3,198,1,../static/images/invador3.png,4,20,8,2.5,right,70,1,654.0,-1.101783198,2,0,1,6820.0,762.0,8.950131233595801,71.60104986876641,7.725888661396157,61.807109291169255
3,199,1,../static/images/invador4.png,2,20,2,10.0,left,70,0,NaN,NaN,1,1,1,6820.0,764.0,8.926701570680628,17.853403141361255,7.71508983568431,15.43017967136862
3,200,1,../static/images/invador3.png,4,20,8,2.5,right,70,1,1078.0,0.734784649,0,0,1,6820.0,774.0,8.811369509043928,70.49095607235142,7.661321695757818,61.29057356606254
3,201,1,../static/images/invador2.png,1,80,2,40.0,left,70,2,958.0,0.215001296,0,0,1,6820.0,776.0,8.788659793814434,17.577319587628867,7.650613118228314,15.301226236456628
3,202,1,../static/images/invador3.png,4,20,8,2.5,right,70,1,822.0,-0.374086504,0,0,1,6900.0,780.0,8.846153846153847,70.76923076923077,7.679758306566474,61.43806645253179
3,203,1,../static/images/invador2.png,1,80,2,40.0,left,70,2,1032.0,0.535534364,0,0,1,6900.0,782.0,8.823529411764707,17.647058823529413,7.669023959348127,15.338047918696255
3,204,1,../static/images/invador4.png,2,20,2,10.0,left,70,2,1190.0,1.219915778,0,0,1,6980.0,786.0,8.880407124681934,17.760814249363868,7.698104880939227,15.396209761878454
3,205,1,../static/images/invador3.png,4,20,8,2.5,right,70,1,767.0,-0.612320541,0,0,1,7000.0,790.0,8.860759493670885,70.88607594936708,7.685195894588761,61.481567156710085
3,206,1,../static/images/invador3.png,4,20,8,2.5,right,70,1,768.0,-0.607989013,0,0,1,7000.0,792.0,8.83838383838384,70.70707070707071,7.674453947006505,61.39563157605204
3,207,1,../static/images/invador1.png,3,80,8,10.0,left,74,1,1070.0,0.700132425,0,0,1,7000.0,794.0,8.816120906801007,70.52896725440806,7.66372701393259,61.30981611146072
3,208,1,../static/images/invador3.png,4,20,8,2.5,left,74,1,801.0,-0.465048591,0,0,1,7000.0,796.0,8.793969849246231,70.35175879396985,7.653015074380555,61.22412059504444
3,209,1,../static/images/invador3.png,4,20,8,2.5,right,70,1,697.0,-0.915527497,2,0,1,7000.0,798.0,8.771929824561404,70.17543859649123,7.642318107393273,61.13854485914619
3,210,1,../static/images/invador2.png,1,80,2,40.0,right,74,2,889.0,-0.083874132,0,0,1,7000.0,800.0,8.75,17.5,7.6316360920429105,15.263272184085821
3,211,1,../static/images/invador4.png,2,20,2,10.0,left,74,1,682.0,-0.980500416,2,0,1,7080.0,804.0,8.805970149253731,17.611940298507463,7.660847523511076,15.321695047022152
3,212,1,../static/images/invador3.png,4,20,8,2.5,right,70,1,953.0,0.193343656,0,0,1,7080.0,806.0,8.784119106699752,70.27295285359801,7.650139608753672,61.201116870029374
3,213,1,../static/images/invador3.png,4,20,8,2.5,left,74,1,774.0,-0.581999845,0,0,1,7080.0,808.0,8.762376237623762,70.0990099009901,7.639446660935382,61.11557328748306
3,214,1,../static/images/invador3.png,4,20,8,2.5,right,70,1,631.0,-1.201408341,0,0,1,7080.0,810.0,8.74074074074074,69.92592592592592,7.628768659136237,61.0301492730899
3,215,1,../static/images/invador3.png,4,20,8,2.5,right,70,1,738.0,-0.737934851,0,0,1,7080.0,812.0,8.719211822660098,69.75369458128078,7.618105582465505,60.94484465972404
3,216,1,../static/images/invador1.png,3,80,8,10.0,left,74,1,845.0,-0.274461361,0,0,1,7080.0,814.0,8.697788697788697,69.58230958230958,7.607457410061656,60.85965928049325
3,217,1,../static/images/invador2.png,1,80,2,40.0,left,74,1,596.0,-1.353011819,2,0,1,7080.0,816.0,8.676470588235293,17.352941176470587,7.596824121092319,15.193648242184638
3,218,1,../static/images/invador3.png,4,20,8,2.5,left,70,2,842.0,-0.287455945,1,0,1,7080.0,818.0,8.65525672371638,69.24205378973105,7.586205694754241,60.68964555803393
3,219,1,../static/images/invador1.png,3,80,8,10.0,right,70,1,1077.0,0.730453121,0,0,1,7100.0,828.0,8.57487922705314,68.59903381642512,7.542031890917885,60.33625512734308
3,220,1,../static/images/invador4.png,2,20,2,10.0,right,74,2,892.0,-0.070879548,0,0,1,7100.0,830.0,8.55421686746988,17.10843373493976,7.531490050170145,15.06298010034029
3,221,1,../static/images/invador3.png,4,20,8,2.5,right,70,1,634.0,-1.188413757,2,0,1,7120.0,834.0,8.537170263788969,68.29736211031175,7.519162666426303,60.153301331410425
3,222,1,../static/images/invador3.png,4,20,8,2.5,right,70,1,966.0,0.24965352,0,0,1,7120.0,836.0,8.516746411483254,68.13397129186603,7.508652791033006,60.06922232826405
3,223,1,../static/images/invador3.png,4,20,8,2.5,right,70,1,642.0,-1.153761533,0,0,1,7120.0,838.0,8.496420047732697,67.97136038186157,7.498157605770204,59.98526084616163
3,224,1,../static/images/invador3.png,4,20,8,2.5,left,74,1,588.0,-1.387664042,2,0,1,7120.0,840.0,8.476190476190476,67.80952380952381,7.4876770901048335,59.90141672083867
3,225,1,../static/images/invador1.png,3,80,8,10.0,right,70,1,963.0,0.236658936,0,0,1,7120.0,842.0,8.45605700712589,67.64845605700712,7.477211223532532,59.81768978826025
3,226,1,../static/images/invador2.png,1,80,2,40.0,left,70,2,1062.0,0.665480202,0,0,1,7120.0,844.0,8.436018957345972,16.872037914691944,7.466759985577596,14.933519971155192
3,227,1,../static/images/invador3.png,4,20,8,2.5,right,70,1,775.0,-0.577668317,0,0,1,7200.0,848.0,8.49056603773585,67.9245283018868,7.496546950285193,59.972375602281545
3,228,1,../static/images/invador4.png,2,20,2,10.0,right,74,2,1027.0,0.513876724,0,0,1,7200.0,850.0,8.470588235294118,16.941176470588236,7.486068685906196,14.972137371812392
3,229,1,../static/images/invador3.png,4,20,8,2.5,left,70,2,1106.0,0.856067431,1,0,1,7220.0,854.0,8.454332552693208,67.63466042154566,7.473899854577708,59.79119883662166
3,230,1,../static/images/invador3.png,4,20,8,2.5,right,70,1,897.0,-0.049221908,0,0,1,7240.0,864.0,8.37962962962963,67.03703703703704,7.430586702326516,59.44469361861213
3,231,1,../static/images/invador1.png,3,80,8,10.0,left,70,2,973.0,0.279974215,1,0,1,7240.0,866.0,8.360277136258661,66.88221709006929,7.420200633583883,59.36160506867106
3,232,1,../static/images/invador4.png,2,20,2,10.0,left,70,2,680.0,-0.989163472,1,0,1,7320.0,876.0,8.356164383561644,16.71232876712329,7.4191873984252,14.8383747968504
3,233,1,../static/images/invador2.png,1,80,2,40.0,left,70,2,1157.0,1.076975356,0,0,1,7340.0,880.0,8.340909090909092,16.681818181818183,7.407252029693972,14.814504059387945
3,234,1,../static/images/invador3.png,4,20,8,2.5,left,70,2,600.0,-1.335685707,1,0,1,7420.0,884.0,8.393665158371041,67.14932126696833,7.437246718900626,59.49797375120501
3,235,1,../static/images/invador3.png,4,20,8,2.5,left,70,2,1126.0,0.94269799,0,0,1,7440.0,894.0,8.322147651006711,66.57718120805369,7.394214456577082,59.153715652616654
3,236,1,../static/images/invador3.png,4,20,8,2.5,left,74,1,919.0,0.046071706,0,0,1,7460.0,904.0,8.252212389380531,66.01769911504425,7.351511970378481,58.81209576302785
3,237,1,../static/images/invador3.png,4,20,8,2.5,right,70,1,670.0,-1.032478751,0,0,1,7460.0,906.0,8.233995584988962,65.8719646799117,7.341236427982517,58.72989142386014
3,238,1,../static/images/invador4.png,2,20,2,10.0,right,74,2,700.0,-0.902532913,0,0,1,7460.0,908.0,8.215859030837004,16.431718061674008,7.330975248179168,14.661950496358337
3,239,1,../static/images/invador3.png,4,20,8,2.5,left,74,1,755.0,-0.664298876,0,0,1,7480.0,912.0,8.201754385964913,65.6140350877193,7.319347801715617,58.554782413724936
3,240,1,../static/images/invador1.png,3,80,8,10.0,right,70,1,569.0,-1.469963073,2,0,1,7480.0,914.0,8.183807439824946,65.47045951859957,7.309117216640005,58.47293773312004
3,241,1,../static/images/invador2.png,1,80,2,40.0,right,74,2,1030.0,0.526871308,0,0,1,7480.0,916.0,8.16593886462882,16.33187772925764,7.298900931318118,14.597801862636237
3,242,1,../static/images/invador3.png,4,20,8,2.5,left,74,1,865.0,-0.187830803,0,0,1,7560.0,920.0,8.217391304347826,65.73913043478261,7.329273841844897,58.63419073475917
3,243,1,../static/images/invador3.png,4,20,8,2.5,right,70,1,679.0,-0.993495,0,0,1,7560.0,922.0,8.199566160520607,65.59652928416486,7.319029382691873,58.55223506153499
3,244,1,../static/images/invador3.png,4,20,8,2.5,left,74,1,686.0,-0.963174304,0,0,1,7560.0,924.0,8.181818181818182,65.45454545454545,7.308799242685003,58.470393941480026
3,245,1,../static/images/invador1.png,3,80,8,10.0,right,74,2,567.0,-1.478626129,1,0,1,7560.0,926.0,8.16414686825054,65.31317494600432,7.298583401809765,58.38866721447812
3,246,1,../static/images/invador3.png,4,20,8,2.5,right,74,2,1286.0,1.635742461,1,0,1,7640.0,936.0,8.162393162393162,65.2991452991453,7.298502175735785,58.38801740588628
3,247,1,../static/images/invador4.png,2,20,2,10.0,left,70,2,1057.0,0.643822562,0,0,1,7660.0,946.0,8.09725158562368,16.19450317124736,7.2565331770040515,14.513066354008103
3,248,1,../static/images/invador3.png,4,20,8,2.5,right,70,1,937.0,0.124039209,0,0,1,7680.0,950.0,8.08421052631579,64.67368421052632,7.245165585575241,57.96132468460193
3,249,1,../static/images/invador3.png,4,20,8,2.5,right,70,1,794.0,-0.495369286,0,0,1,7680.0,952.0,8.067226890756302,64.53781512605042,7.235038688354598,57.88030950683678
3,250,1,../static/images/invador2.png,1,80,2,40.0,left,70,2,901.0,-0.031895797,0,0,1,7680.0,954.0,8.050314465408805,16.10062893081761,7.224925945958452,14.449851891916904
3,251,1,../static/images/invador3.png,4,20,8,2.5,right,70,1,877.0,-0.135852467,0,0,1,7760.0,958.0,8.100208768267223,64.80167014613778,7.255557081062908,58.044456648503264
3,252,1,../static/images/invador3.png,4,20,8,2.5,left,74,1,701.0,-0.898201385,0,0,1,7760.0,960.0,8.083333333333334,64.66666666666667,7.245415659176744,57.96332527341395
3,253,1,../static/images/invador3.png,4,20,8,2.5,right,70,1,687.0,-0.958842776,0,0,1,7760.0,962.0,8.066528066528067,64.53222453222453,7.235288412416862,57.8823072993349
3,254,1,../static/images/invador4.png,2,20,2,10.0,right,74,2,1175.0,1.154942859,0,0,1,7760.0,964.0,8.049792531120332,16.099585062240664,7.2251753209700444,14.450350641940089
3,255,1,../static/images/invador1.png,3,80,8,10.0,right,70,1,1105.0,0.851735903,0,0,1,7780.0,968.0,8.037190082644628,64.29752066115702,7.213917190450105,57.71133752360084
3,256,1,../static/images/invador2.png,1,80,2,40.0,left,70,2,869.0,-0.170504691,0,0,1,7780.0,970.0,8.02061855670103,16.04123711340206,7.2038339705315195,14.407667941063039
3,257,1,../static/images/invador3.png,4,20,8,2.5,left,74,1,862.0,-0.200825386,0,0,1,7860.0,974.0,8.069815195071868,64.55852156057495,7.234538731422051,57.876309851376405
3,258,1,../static/images/invador3.png,4,20,8,2.5,left,74,1,855.0,-0.231146082,0,0,1,7860.0,976.0,8.05327868852459,64.42622950819673,7.224426687838431,57.79541350270745
3,259,1,../static/images/invador3.png,4,20,8,2.5,right,70,1,850.0,-0.252803722,0,0,1,7860.0,978.0,8.036809815950921,64.29447852760737,7.214328778317705,57.71463022654164
3,260,1,../static/images/invador2.png,1,80,2,40.0,left,70,2,1106.0,0.856067431,0,0,1,7860.0,980.0,8.020408163265307,16.040816326530614,7.204244983104051,14.408489966208101
3,261,1,../static/images/invador3.png,4,20,8,2.5,right,74,2,611.0,-1.2880389,1,0,1,7940.0,984.0,8.06910569105691,64.55284552845528,7.234948309272459,57.879586474179675
3,262,1,../static/images/invador3.png,4,20,8,2.5,right,70,1,870.0,-0.166173163,0,0,1,7960.0,994.0,8.008048289738431,64.06438631790745,7.193466353207689,57.54773082566151
3,263,1,../static/images/invador1.png,3,80,8,10.0,right,70,1,539.0,-1.599908911,2,0,1,7960.0,996.0,7.991967871485944,63.93574297188755,7.183411718353776,57.46729374683021
3,264,1,../static/images/invador4.png,2,20,2,10.0,right,74,2,1165.0,1.11162758,0,0,1,7960.0,998.0,7.975951903807616,15.951903807615231,7.1733711373199665,14.346742274639933
3,265,1,../static/images/invador3.png,4,20,8,2.5,left,74,1,819.0,-0.387081088,0,0,1,7980.0,1002.0,7.9640718562874255,63.712574850299404,7.162293839731321,57.29835071785057
3,266,1,../static/images/invador3.png,4,20,8,2.5,left,74,1,656.0,-1.093120142,0,0,1,7980.0,1004.0,7.948207171314741,63.58565737051793,7.1522827761162375,57.2182622089299
3,267,1,../static/images/invador3.png,4,20,8,2.5,left,70,2,589.0,-1.383332514,1,0,1,7980.0,1006.0,7.932405566600398,63.45924453280318,7.142285705419756,57.138285643358046
3,268,1,../static/images/invador2.png,1,80,2,40.0,left,74,1,747.0,-0.6989511,2,0,1,8000.0,1016.0,7.874015748031496,15.748031496062993,7.101513865736875,14.20302773147375
3,269,1,../static/images/invador3.png,4,20,8,2.5,right,74,2,1013.0,0.453235333,1,0,1,8000.0,1018.0,7.858546168958743,62.86836935166994,7.091587757053801,56.732702056430405
3,270,1,../static/images/invador4.png,2,20,2,10.0,right,74,2,1139.0,0.999007853,0,0,1,8020.0,1028.0,7.801556420233463,15.603112840466926,7.051204439192735,14.10240887838547
3,271,1,../static/images/invador1.png,3,80,8,10.0,left,70,2,763.0,-0.629646653,1,0,1,8040.0,1032.0,7.790697674418604,62.325581395348834,7.040553589056248,56.324428712449986
3,272,1,../static/images/invador3.png,4,20,8,2.5,right,70,1,922.0,0.05906629,0,0,1,8120.0,1042.0,7.792706333973128,62.341650671785025,7.042449764754222,56.33959811803378
3,273,1,../static/images/invador4.png,2,20,2,10.0,left,70,2,996.0,0.379599358,0,0,1,8120.0,1044.0,7.777777777777778,15.555555555555555,7.032606212649464,14.065212425298927
3,274,1,../static/images/invador3.png,4,20,8,2.5,right,70,1,571.0,-1.461300017,0,0,1,8140.0,1048.0,7.767175572519084,62.13740458015267,7.022020283366578,56.17616226693262
3,275,1,../static/images/invador1.png,3,80,8,10.0,right,70,1,1508.0,2.597341664,0,0,1,8140.0,1050.0,7.752380952380952,62.01904761904762,7.012205286476443,56.097642291811546
