subj,trial_index_actual,block,stimulus,stim_rank,reward_percent,delay_s,profitability,stim_left_right,key_press,approach_avoid,rt,rt_z,force_trial,missed,order_condition,reward_sum,delay_sum,Q_arithmetic,opp_cost_arithmetic,Q_estimate,opp_cost_estimate,dv,dv_abs,choice_log_reg,reward_factor,delay_factor,stim_rank_factor,reward_factor_1back,delay_factor_1back,reward_factor_2back,delay_factor_2back,reward_factor_3back,delay_factor_3back,choice_log_reg_1back,choice_reward_1back_interaction,choice_delay_1back_interaction,change_delay,change_reward,stim_rank_factor_1back
1,1,-1,../static/images/invador3.png,1,80,2,40,right,74,2,718,-1.04463596508796,0,0,-1,20,12,1.66666666666667,3.33333333333333,5.22804860666439,10.4560972133288,69.5439027866712,69.5439027866712,1,1,1,1,-1,-1,NaN,NaN,NaN,NaN,1,-1,-1,2,0,-1
1,3,-1,../static/images/invador4.png,3,80,8,10,left,70,2,933,-0.0799260829312511,0,0,-1,100,26,3.84615384615385,30.7692307692308,5.54592654494006,44.3674123595204,35.6325876404796,35.6325876404796,1,1,-1,0,-1,1,1,1,-1,-1,NaN,NaN,NaN,4,80,0
1,5,-1,../static/images/invador3.png,1,80,2,40,right,74,2,628,-1.44846800878147,0,0,-1,260,40,6.5,13,9.73851437901797,19.4770287580359,60.5229712419641,60.5229712419641,1,1,1,1,1,1,1,-1,-1,1,1,1,1,10,80,1
1,7,-1,../static/images/invador3.png,1,80,2,40,right,74,2,884,-0.299790195608827,0,0,-1,340,46,7.39130434782609,14.7826086956522,10.8708134951247,21.7416269902494,58.2583730097506,58.2583730097506,1,1,1,1,1,1,1,1,1,1,0,0,0,4,80,1
1,8,-1,../static/images/invador4.png,3,80,8,10,right,74,2,492,-2.05870309702943,0,0,-1,420,50,8.4,67.2,12.6244450236219,100.995560188975,-20.9955601889751,20.9955601889751,1,1,-1,0,1,1,1,1,1,1,1,1,1,2,0,1
1,9,-1,../static/images/invador3.png,1,80,2,40,left,70,2,596,-1.59205273542805,0,0,-1,500,60,8.33333333333333,16.6666666666667,12.0241866514262,24.0483733028523,55.9516266971477,55.9516266971477,1,1,1,1,1,-1,1,1,1,1,1,1,-1,4,80,0
1,12,-1,../static/images/invador2.png,2,20,2,10,left,70,2,631,-1.43500694065835,0,0,-1,680,78,8.71794871794872,17.4358974358974,11.8066186922317,23.6132373844634,-3.6132373844634,3.6132373844634,1,-1,1,0,1,1,-1,-1,1,1,1,1,1,10,20,1
1,13,-1,../static/images/invador3.png,1,80,2,40,left,70,2,824,-0.569011558071165,0,0,-1,700,82,8.53658536585366,17.0731707317073,10.6188740038325,21.237748007665,58.762251992335,58.762251992335,1,1,1,1,-1,1,1,1,-1,-1,1,-1,1,4,80,0
1,14,-1,../static/images/invador3.png,1,80,2,40,left,70,2,1063,0.503386869070481,0,0,-1,780,86,9.06976744186047,18.1395348837209,12.4175815438257,24.8351630876515,55.1648369123485,55.1648369123485,1,1,1,1,1,1,-1,1,1,1,1,1,1,4,20,1
1,15,-1,../static/images/invador1.png,4,20,8,2.5,right,70,1,1007,0.252113597438965,0,0,-1,860,90,9.55555555555556,76.4444444444444,13.8944714865263,111.155771892211,-91.1557718922108,91.1557718922108,0,-1,-1,-1,1,1,1,1,-1,1,1,1,1,4,80,1
1,16,-1,../static/images/invador2.png,2,20,2,10,right,70,1,1072,0.543770073439832,0,0,-1,860,92,9.34782608695652,18.695652173913,12.9155763025489,25.8311526050978,-5.83115260509784,5.83115260509784,0,-1,1,0,-1,-1,1,1,1,1,0,-0,-0,4,80,-1
1,17,-1,../static/images/invador3.png,1,80,2,40,left,70,2,893,-0.259406991239476,0,0,-1,860,94,9.14893617021277,18.2978723404255,12.0056463744392,24.0112927488783,55.9887072511217,55.9887072511217,1,1,1,1,-1,1,-1,-1,1,1,0,-0,0,2,0,0
1,18,-1,../static/images/invador3.png,1,80,2,40,left,70,2,1044,0.418133437624074,0,0,-1,940,98,9.59183673469388,19.1836734693878,13.5562381188528,27.1124762377056,52.8875237622944,52.8875237622944,1,1,1,1,1,1,-1,1,-1,-1,1,1,1,2,0,1
1,19,-1,../static/images/invador3.png,1,80,2,40,left,70,2,1044,0.418133437624074,0,0,-1,1020,102,10,20,14.8294041570447,29.6588083140894,50.3411916859106,50.3411916859106,1,1,1,1,1,1,1,1,-1,1,1,1,1,4,80,1
1,20,-1,../static/images/invador4.png,3,80,8,10,left,74,1,870,-0.362608513516706,0,0,-1,1100,106,10.377358490566,83.0188679245283,15.8747803926948,126.998243141558,-46.9982431415584,46.9982431415584,0,1,-1,0,1,1,1,1,1,1,1,1,1,4,80,1
1,21,-1,../static/images/invador2.png,2,20,2,10,right,70,1,1019,0.305957869931433,0,0,-1,1100,108,10.1851851851852,20.3703703703704,14.7563682178829,29.5127364357657,-9.51273643576575,9.51273643576575,0,-1,1,0,1,-1,1,1,1,1,0,0,-0,4,80,0
1,22,-1,../static/images/invador3.png,1,80,2,40,left,70,2,1130,0.804017390486758,0,0,-1,1100,110,10,20,13.7167505688423,27.4335011376847,52.5664988623153,52.5664988623153,1,1,1,1,-1,1,1,-1,1,1,0,-0,0,2,0,0
1,23,-1,../static/images/invador4.png,3,80,8,10,left,74,1,712,-1.0715581013342,0,0,-1,1180,114,10.3508771929825,82.8070175438596,14.9611983580456,119.689586864365,-39.6895868643652,39.6895868643652,0,1,-1,0,1,1,-1,1,1,-1,1,1,1,2,0,1
1,24,-1,../static/images/invador1.png,4,20,8,2.5,left,74,1,737,-0.959382533641555,0,0,-1,1180,116,10.1724137931034,81.3793103448276,13.9071499882733,111.257199906186,-91.2571999061861,91.2571999061861,0,-1,-1,-1,1,-1,1,1,-1,1,0,0,-0,4,80,0
1,25,-1,../static/images/invador3.png,1,80,2,40,left,70,2,1111,0.718763959040351,0,0,-1,1180,118,10,20,12.9273615767764,25.8547231535528,54.1452768464472,54.1452768464472,1,1,1,1,-1,-1,1,-1,1,1,0,-0,-0,2,0,-1
1,27,-1,../static/images/invador3.png,1,80,2,40,right,74,2,1205,1.14054409356468,0,0,-1,1260,124,10.1612903225806,20.3225806451613,13.3046592135851,26.6093184271703,53.3906815728297,53.3906815728297,1,1,1,1,1,1,1,1,-1,-1,0,0,0,4,80,1
1,29,-1,../static/images/invador3.png,1,80,2,40,left,70,2,997,0.207243370361909,0,0,-1,1340,130,10.3076923076923,20.6153846153846,13.5926266767416,27.1852533534833,52.8147466465167,52.8147466465167,1,1,1,1,1,1,1,1,1,1,0,0,0,4,80,1
1,32,-1,../static/images/invador1.png,4,20,8,2.5,right,70,1,830,-0.542089421824931,0,0,-1,1500,146,10.2739726027397,82.1917808219178,12.807630674121,102.461045392968,-82.4610453929683,82.4610453929683,0,-1,-1,-1,1,-1,-1,1,1,1,1,1,-1,2,0,0
1,33,-1,../static/images/invador3.png,1,80,2,40,left,70,2,1107,0.700815868209529,0,0,-1,1500,148,10.1351351351351,20.2702702702703,11.9053057460217,23.8106114920433,56.1893885079567,56.1893885079567,1,1,1,1,-1,-1,1,-1,-1,1,0,-0,-0,10,80,-1
1,34,-1,../static/images/invador3.png,1,80,2,40,right,74,2,1262,1.3963043879039,0,0,-1,1580,152,10.3947368421053,20.7894736842105,13.4738500364886,26.9477000729772,53.0522999270228,53.0522999270228,1,1,1,1,1,1,-1,-1,1,-1,1,1,1,2,0,1
1,35,-1,../static/images/invador3.png,1,80,2,40,left,70,2,1328,1.69244788661247,0,0,-1,1660,156,10.6410256410256,21.2820512820513,14.7617566226142,29.5235132452284,50.4764867547716,50.4764867547716,1,1,1,1,1,1,1,1,-1,-1,1,1,1,4,80,1
1,36,-1,../static/images/invador3.png,1,80,2,40,left,70,2,1332,1.7103959774433,0,0,-1,1740,160,10.875,21.75,15.8192360860038,31.6384721720075,48.3615278279925,48.3615278279925,1,1,1,1,1,1,1,1,1,1,1,1,1,4,80,1
1,38,-1,../static/images/invador3.png,1,80,2,40,right,74,2,1164,0.956576162548749,0,0,-1,1840,174,10.5747126436782,21.1494252873563,11.9297622515747,23.8595245031494,56.1404754968506,56.1404754968506,1,1,1,1,-1,-1,1,1,1,1,1,-1,-1,4,80,-1
1,39,-1,../static/images/invador3.png,1,80,2,40,left,70,2,1452,2.24883870236797,0,0,-1,1920,178,10.7865168539326,21.5730337078652,13.4939308813629,26.9878617627259,53.0121382372741,53.0121382372741,1,1,1,1,1,1,-1,-1,1,1,1,1,1,10,20,1
1,40,-1,../static/images/invador4.png,3,80,8,10,right,70,1,1048,0.436081528454896,0,0,-1,2000,182,10.989010989011,87.9120879120879,14.7782446826109,118.225957460887,-38.2259574608869,38.2259574608869,0,1,-1,0,1,1,1,1,-1,-1,1,1,1,4,80,1
1,41,-1,../static/images/invador2.png,2,20,2,10,left,74,1,1228,1.24374561584191,0,0,-1,2000,184,10.8695652173913,21.7391304347826,13.7370857899192,27.4741715798384,-7.47417157983839,7.47417157983839,0,-1,1,0,1,-1,1,1,1,1,0,0,-0,4,80,0
1,42,-1,../static/images/invador3.png,1,80,2,40,right,74,2,1304,1.58475934162754,0,0,-1,2000,186,10.752688172043,21.505376344086,12.7692787643208,25.5385575286416,54.4614424713584,54.4614424713584,1,1,1,1,-1,1,1,-1,1,1,0,-0,0,2,0,0
1,43,-1,../static/images/invador2.png,2,20,2,10,left,74,1,906,-0.201075696039303,0,0,-1,2080,190,10.9473684210526,21.8947368421053,14.1832444394806,28.3664888789612,-8.36648887896119,8.36648887896119,0,-1,1,0,1,1,-1,1,1,-1,1,1,1,2,0,1
1,44,-1,../static/images/invador1.png,4,20,8,2.5,right,70,1,782,-0.757466511794801,0,0,-1,2080,192,10.8333333333333,86.6666666666667,13.1840045843738,105.47203667499,-85.4720366749903,85.4720366749903,0,-1,-1,-1,-1,1,1,1,-1,1,0,-0,0,4,80,0
1,45,-1,../static/images/invador3.png,1,80,2,40,left,70,2,1384,1.94372115824399,0,0,-1,2080,194,10.7216494845361,21.4432989690722,12.2551633106561,24.5103266213121,55.4896733786879,55.4896733786879,1,1,1,1,-1,-1,-1,1,1,1,0,-0,-0,2,0,-1
1,46,-1,../static/images/invador4.png,3,80,8,10,right,70,1,954,0.0143013939305671,0,0,-1,2160,198,10.9090909090909,87.2727272727273,13.7611124774901,110.088899819921,-30.0888998199209,30.0888998199209,0,1,-1,0,1,1,-1,-1,-1,1,1,1,1,2,0,1
1,48,-1,../static/images/invador3.png,1,80,2,40,left,70,2,1212,1.17195325251862,0,0,-1,2160,202,10.6930693069307,21.3861386138614,11.8904162913887,23.7808325827774,56.2191674172226,56.2191674172226,1,1,1,1,1,1,1,-1,1,1,0,0,0,2,0,1
1,50,-1,../static/images/invador4.png,3,80,8,10,left,74,1,1032,0.364289165131606,0,0,-1,2240,208,10.7692307692308,86.1538461538462,12.5132243512021,100.105794809617,-20.1057948096165,20.1057948096165,0,1,-1,0,1,1,1,1,1,1,0,0,0,4,80,1
1,51,-1,../static/images/invador2.png,2,20,2,10,left,74,1,1086,0.60658839134771,0,0,-1,2240,210,10.6666666666667,21.3333333333333,11.6316409771746,23.2632819543491,-3.26328195434913,3.26328195434913,0,-1,1,0,1,-1,1,1,1,1,0,0,-0,2,0,0
1,52,-1,../static/images/invador1.png,4,20,8,2.5,right,70,1,990,0.17583421140797,0,0,-1,2240,212,10.5660377358491,84.5283018867924,10.8121670342216,86.4973362737731,-66.4973362737731,66.4973362737731,0,-1,-1,-1,-1,1,1,-1,1,1,0,-0,0,2,0,0
1,53,-1,../static/images/invador3.png,1,80,2,40,right,74,2,1172,0.992472344210395,0,0,-1,2240,214,10.4672897196262,20.9345794392523,10.0504267803068,20.1008535606136,59.8991464393864,59.8991464393864,1,1,1,1,-1,-1,-1,1,1,-1,0,-0,-0,2,0,-1
1,56,-1,../static/images/invador1.png,4,20,8,2.5,left,74,1,1077,0.56620518697836,0,0,-1,2400,224,10.7142857142857,85.7142857142857,12.8199147727241,102.559318181793,-82.5593181817928,82.5593181817928,0,-1,-1,-1,1,1,1,1,1,1,1,1,1,2,0,1
1,57,-1,../static/images/invador3.png,1,80,2,40,left,70,2,1216,1.18990134334944,0,0,-1,2400,226,10.6194690265487,21.2389380530973,11.9167244036489,23.8334488072978,56.1665511927022,56.1665511927022,1,1,1,1,-1,-1,1,1,1,1,0,-0,-0,4,80,-1
1,61,-1,../static/images/invador4.png,3,80,8,10,right,70,1,1122,0.768121208825113,0,0,-1,2560,238,10.7563025210084,86.0504201680672,13.2644735572273,106.115788457818,-26.1157884578183,26.1157884578183,0,1,-1,0,1,1,1,1,1,1,1,1,1,2,0,1
1,62,-1,../static/images/invador2.png,2,20,2,10,right,70,1,1212,1.17195325251862,0,0,-1,2560,240,10.6666666666667,21.3333333333333,12.3299630725531,24.6599261451061,-4.65992614510615,4.65992614510615,0,-1,1,0,1,-1,1,1,1,1,0,0,-0,4,80,0
1,63,-1,../static/images/invador3.png,1,80,2,40,left,70,2,1288,1.51296697830425,0,0,-1,2560,242,10.5785123966942,21.1570247933884,11.4612908469095,22.922581693819,57.077418306181,57.077418306181,1,1,1,1,-1,1,1,-1,1,1,0,-0,0,2,0,0
1,64,-1,../static/images/invador2.png,2,20,2,10,right,70,1,926,-0.111335241885191,0,0,-1,2640,246,10.7317073170732,21.4634146341463,13.1092765167098,26.2185530334197,-6.21855303341968,6.21855303341968,0,-1,1,0,1,1,-1,1,1,-1,1,1,1,2,0,1
1,65,-1,../static/images/invador3.png,1,80,2,40,right,74,2,1307,1.59822040975065,0,0,-1,2640,248,10.6451612903226,21.2903225806452,12.1856999949199,24.3713999898398,55.6286000101602,55.6286000101602,1,1,1,1,-1,1,1,1,-1,1,0,-0,0,4,80,0
1,66,-1,../static/images/invador3.png,1,80,2,40,left,70,2,1225,1.23028454771879,0,0,-1,2720,252,10.7936507936508,21.5873015873016,13.7040772618609,27.4081545237218,52.5918454762782,52.5918454762782,1,1,1,1,1,1,-1,1,1,1,1,1,1,2,0,1
1,67,-1,../static/images/invador1.png,4,20,8,2.5,right,70,1,799,-0.681187125763806,0,0,-1,2800,256,10.9375,87.5,14.9507925087314,119.606340069851,-99.6063400698509,99.6063400698509,0,-1,-1,-1,1,1,1,1,-1,1,1,1,1,4,80,1
1,68,-1,../static/images/invador3.png,1,80,2,40,right,74,2,1272,1.44117461498096,0,0,-1,2800,258,10.8527131782946,21.7054263565891,13.8974772532619,27.7949545065239,52.2050454934761,52.2050454934761,1,1,1,1,-1,-1,1,1,1,1,0,-0,-0,4,80,-1
1,70,-1,../static/images/invador2.png,2,20,2,10,right,70,1,992,0.184808256823381,0,0,-1,2960,272,10.8823529411765,21.7647058823529,13.663094764154,27.3261895283081,-7.32618952830808,7.32618952830808,0,-1,1,0,1,-1,1,1,-1,-1,1,1,-1,4,80,0
1,71,-1,../static/images/invador3.png,1,80,2,40,left,70,2,1322,1.66552575036624,0,0,-1,2960,274,10.8029197080292,21.6058394160584,12.7005005643079,25.4010011286158,54.5989988713842,54.5989988713842,1,1,1,1,-1,1,1,-1,1,1,0,-0,0,10,80,0
1,72,-1,../static/images/invador3.png,1,80,2,40,left,70,2,1277,1.46360972851949,0,0,-1,3040,278,10.9352517985612,21.8705035971223,14.126771761395,28.2535435227901,51.7464564772099,51.7464564772099,1,1,1,1,1,1,-1,1,1,-1,1,1,1,2,0,1
1,73,-1,../static/images/invador3.png,1,80,2,40,left,70,2,1295,1.54437613725819,0,0,-1,3120,282,11.063829787234,22.1276595744681,15.2978601900061,30.5957203800122,49.4042796199878,49.4042796199878,1,1,1,1,1,1,1,1,-1,1,1,1,1,4,80,1
1,74,-1,../static/images/invador4.png,3,80,8,10,right,70,1,899,-0.232484854993243,0,0,-1,3200,286,11.1888111888112,89.5104895104895,16.2594221358882,130.075377087106,-50.0753770871056,50.0753770871056,0,1,-1,0,1,1,1,1,1,1,1,1,1,4,80,1
1,76,-1,../static/images/invador3.png,1,80,2,40,left,70,2,3,-4.25285720109749,0,0,-1,3200,290,11.0344827586207,22.0689655172414,14.049103818414,28.098207636828,51.901792363172,51.901792363172,1,1,1,1,-1,-1,1,-1,1,1,0,-0,-0,2,0,-1
1,77,-1,../static/images/invador2.png,2,20,2,10,left,74,1,975,0.108528870792385,0,0,-1,3280,294,11.156462585034,22.312925170068,15.2340882863984,30.4681765727967,-10.4681765727967,10.4681765727967,0,-1,1,0,1,1,-1,-1,1,-1,1,1,1,2,0,1
1,78,-1,../static/images/invador3.png,1,80,2,40,left,70,2,1388,1.96166924907481,0,0,-1,3280,296,11.0810810810811,22.1621621621622,14.1608142384935,28.3216284769871,51.6783715230129,51.6783715230129,1,1,1,1,-1,1,1,1,-1,-1,0,-0,0,4,80,0
1,80,-1,../static/images/invador4.png,3,80,8,10,right,70,1,849,-0.456835990378524,0,0,-1,3440,304,11.3157894736842,90.5263157894737,16.2823728556309,130.258982845047,-50.2589828450475,50.2589828450475,0,1,-1,0,1,1,1,1,-1,1,1,1,1,4,80,1
1,81,-1,../static/images/invador3.png,1,80,2,40,right,74,2,1271,1.43668759227325,0,0,-1,3440,306,11.2418300653595,22.483660130719,15.1352449215056,30.2704898430113,49.7295101569888,49.7295101569888,1,1,1,1,1,-1,1,1,1,1,0,0,-0,4,80,0
1,83,-1,../static/images/invador1.png,4,20,8,2.5,left,74,1,1035,0.377750233254723,0,0,-1,3520,312,11.2820512820513,90.2564102564103,14.9897971622478,119.918377297983,-99.9183772979826,99.9183772979826,0,-1,-1,-1,1,1,1,1,1,-1,0,0,0,4,80,1
1,84,-1,../static/images/invador3.png,1,80,2,40,left,70,2,1272,1.44117461498096,0,0,-1,3520,314,11.2101910828025,22.4203821656051,13.9337339456547,27.8674678913093,52.1325321086907,52.1325321086907,1,1,1,1,-1,-1,1,1,1,1,0,-0,-0,2,0,-1
1,85,-1,../static/images/invador3.png,1,80,2,40,left,70,2,1266,1.41425247873472,0,0,-1,3600,318,11.3207547169811,22.6415094339623,15.1393599322994,30.2787198645989,49.7212801354011,49.7212801354011,1,1,1,1,1,1,-1,-1,1,1,1,1,1,2,0,1
1,88,-1,../static/images/invador3.png,1,80,2,40,left,70,2,1360,1.83603261325905,0,0,-1,3680,326,11.2883435582822,22.5766871165644,13.9366534025794,27.8733068051587,52.1266931948413,52.1266931948413,1,1,1,1,-1,1,1,-1,1,1,0,-0,0,2,0,0
1,89,-1,../static/images/invador1.png,4,20,8,2.5,left,74,1,724,-1.01771382884173,0,0,-1,3760,330,11.3939393939394,91.1515151515152,15.1417570516056,121.134056412845,-101.134056412845,101.134056412845,0,-1,-1,-1,1,1,-1,1,1,-1,1,1,1,2,0,1
1,90,-1,../static/images/invador3.png,1,80,2,40,right,74,2,1119,0.754660140701996,0,0,-1,3760,332,11.3253012048193,22.6506024096386,14.0749879363394,28.1499758726788,51.8500241273212,51.8500241273212,1,1,1,1,-1,-1,1,1,-1,1,0,-0,-0,4,80,-1
1,94,-1,../static/images/invador3.png,1,80,2,40,left,70,2,1179,1.02388150316433,0,0,-1,3960,354,11.1864406779661,22.3728813559322,11.8638451464662,23.7276902929323,56.2723097070676,56.2723097070676,1,1,1,1,1,1,-1,1,-1,-1,1,1,1,4,20,1
1,96,-1,../static/images/invador3.png,1,80,2,40,right,74,2,1010,0.265574665562082,0,0,-1,4120,368,11.195652173913,22.3913043478261,12.5619033453283,25.1238066906567,54.8761933093433,54.8761933093433,1,1,1,1,1,-1,1,1,1,1,1,1,-1,4,80,0
1,97,-1,../static/images/invador3.png,1,80,2,40,right,74,2,1157,0.92516700359481,0,0,-1,4200,372,11.2903225806452,22.5806451612903,14.0129718054567,28.0259436109134,51.9740563890866,51.9740563890866,1,1,1,1,1,1,1,-1,1,1,1,1,1,10,80,1
1,99,-1,../static/images/invador3.png,1,80,2,40,right,74,2,1374,1.89885093116693,0,0,-1,4280,378,11.3227513227513,22.6455026455026,14.1332369544213,28.2664739088426,51.7335260911574,51.7335260911574,1,1,1,1,-1,1,1,1,1,1,0,-0,0,4,80,0
1,100,-1,../static/images/invador3.png,1,80,2,40,left,70,2,1083,0.593127323224593,0,0,-1,4360,382,11.413612565445,22.8272251308901,15.3031686564165,30.6063373128329,49.3936626871671,49.3936626871671,1,1,1,1,1,1,-1,1,1,1,1,1,1,2,0,1
1,104,-1,../static/images/invador4.png,3,80,8,10,left,74,1,987,0.162373143284853,0,0,-1,4540,402,11.2935323383085,90.3482587064677,11.3130425630272,90.5043405042179,-10.5043405042179,10.5043405042179,0,1,-1,0,1,1,-1,-1,1,1,0,0,0,10,20,1
1,105,-1,../static/images/invador3.png,1,80,2,40,left,70,2,1207,1.14951813898009,0,0,-1,4540,404,11.2376237623762,22.4752475247525,10.5160145586287,21.0320291172573,58.9679708827427,58.9679708827427,1,1,1,1,1,-1,1,1,-1,-1,0,0,-0,2,0,0
1,106,-1,../static/images/invador3.png,1,80,2,40,left,70,2,1115,0.736712049871174,0,0,-1,4620,408,11.3235294117647,22.6470588235294,12.3331253013541,24.6662506027081,55.3337493972919,55.3337493972919,1,1,1,1,1,1,1,-1,1,1,1,1,1,2,0,1
1,108,-1,../static/images/invador4.png,3,80,8,10,right,70,1,1624,3.02060660809334,0,0,-1,4780,416,11.4903846153846,91.9230769230769,15.0501835395652,120.401468316522,-40.4014683165216,40.4014683165216,0,1,-1,0,1,1,1,1,1,1,1,1,1,4,80,1
1,109,-1,../static/images/invador3.png,1,80,2,40,right,74,2,984,0.148912075161736,0,0,-1,4780,418,11.4354066985646,22.8708133971292,13.9898659737518,27.9797319475037,52.0202680524963,52.0202680524963,1,1,1,1,1,-1,1,1,1,1,0,0,-0,4,80,0
1,110,-1,../static/images/invador1.png,4,20,8,2.5,right,70,1,977,0.117502916207797,0,0,-1,4860,422,11.5165876777251,92.1327014218009,15.1854490412384,121.483592329907,-101.483592329907,101.483592329907,0,-1,-1,-1,1,1,1,-1,1,1,1,1,1,2,0,1
1,113,-1,../static/images/invador3.png,1,80,2,40,right,74,2,1289,1.51745400101195,0,0,-1,4860,428,11.3551401869159,22.7102803738318,12.1967160047271,24.3934320094541,55.6065679905459,55.6065679905459,1,1,1,1,1,-1,-1,1,-1,-1,0,0,-0,2,0,0
1,114,-1,../static/images/invador3.png,1,80,2,40,left,70,2,1000,0.220704438485026,0,0,-1,4940,432,11.4351851851852,22.8703703703704,13.7131223310182,27.4262446620363,52.5737553379637,52.5737553379637,1,1,1,1,1,1,1,-1,-1,1,1,1,1,2,0,1
1,116,-1,../static/images/invador2.png,2,20,2,10,right,70,1,1027,0.341854051593078,0,0,-1,5100,440,11.5909090909091,23.1818181818182,15.9805484181839,31.9610968363678,-11.9610968363678,11.9610968363678,0,-1,1,0,1,1,1,1,1,1,1,1,1,4,80,1
1,117,-1,../static/images/invador3.png,1,80,2,40,right,74,2,1054,0.46300366470113,0,0,-1,5100,442,11.5384615384615,23.0769230769231,14.8546846601383,29.7093693202766,50.2906306797234,50.2906306797234,1,1,1,1,-1,1,1,1,1,1,0,-0,0,4,80,0
1,118,-1,../static/images/invador1.png,4,20,8,2.5,left,74,1,790,-0.721570330133156,0,0,-1,5180,446,11.6143497757848,92.914798206278,15.8955378087478,127.164302469983,-107.164302469983,107.164302469983,0,-1,-1,-1,1,1,-1,1,1,1,1,1,1,2,0,1
1,119,-1,../static/images/invador3.png,1,80,2,40,right,74,2,1156,0.920679980887104,0,0,-1,5180,448,11.5625,23.125,14.7756632296533,29.5513264593066,50.4486735406934,50.4486735406934,1,1,1,1,-1,-1,1,1,-1,1,0,-0,-0,4,80,-1
1,121,-1,../static/images/invador4.png,3,80,8,10,right,70,1,1023,0.323905960762256,0,0,-1,5260,454,11.5859030837004,92.6872246696035,14.7153511612708,117.722809290167,-37.7228092901666,37.7228092901666,0,1,-1,0,-1,1,1,1,-1,-1,0,-0,0,4,80,0
1,122,-1,../static/images/invador3.png,1,80,2,40,right,74,2,1139,0.844400594856109,0,0,-1,5260,456,11.5350877192982,23.0701754385965,13.6786232514491,27.3572465028981,52.6427534971019,52.6427534971019,1,1,1,1,1,-1,-1,1,1,1,0,0,-0,2,0,0
1,123,-1,../static/images/invador1.png,4,20,8,2.5,right,70,1,851,-0.447861944963113,0,0,-1,5340,460,11.6086956521739,92.8695652173913,14.9298926285992,119.439141028794,-99.4391410287937,99.4391410287937,0,-1,-1,-1,1,1,1,-1,-1,1,1,1,1,2,0,1
1,125,-1,../static/images/invador3.png,1,80,2,40,right,74,2,1302,1.57578529621213,0,0,-1,5420,466,11.6309012875536,23.2618025751073,15.0936385842086,30.1872771684173,49.8127228315827,49.8127228315827,1,1,1,1,1,1,-1,-1,1,1,1,1,1,2,0,1
1,126,-1,../static/images/invador3.png,1,80,2,40,right,74,2,1299,1.56232422808901,0,0,-1,5500,470,11.7021276595745,23.4042553191489,16.0917390473492,32.1834780946984,47.8165219053016,47.8165219053016,1,1,1,1,1,1,1,1,-1,-1,1,1,1,4,80,1
1,127,-1,../static/images/invador3.png,1,80,2,40,right,74,2,1198,1.10913493461074,0,0,-1,5580,474,11.7721518987342,23.5443037974684,16.9112633463482,33.8225266926964,46.1774733073036,46.1774733073036,1,1,1,1,1,1,1,1,1,1,1,1,1,4,80,1
1,128,-1,../static/images/invador3.png,1,80,2,40,left,70,2,1135,0.826452504025286,0,0,-1,5660,478,11.8410041841004,23.6820083682008,17.5841616180677,35.1683232361354,44.8316767638646,44.8316767638646,1,1,1,1,1,1,1,1,1,1,1,1,1,4,80,1
1,129,-1,../static/images/invador3.png,1,80,2,40,right,74,2,1117,0.745686095286585,0,0,-1,5740,482,11.9087136929461,23.8174273858921,18.1366676079892,36.2733352159784,43.7266647840216,43.7266647840216,1,1,1,1,1,1,1,1,1,1,1,1,1,4,80,1
1,130,-1,../static/images/invador1.png,4,20,8,2.5,right,70,1,927,-0.106848219177485,0,0,-1,5820,486,11.9753086419753,95.8024691358025,18.5903214242177,148.722571393741,-128.722571393741,128.722571393741,0,-1,-1,-1,1,1,1,1,1,1,1,1,1,4,80,1
1,132,-1,../static/images/invador4.png,3,80,8,10,right,70,1,978,0.121989938915502,0,0,-1,5820,490,11.8775510204082,95.0204081632653,16.0631388694954,128.505110955963,-48.5051109559634,48.5051109559634,0,1,-1,0,-1,1,-1,-1,1,1,0,-0,0,2,0,0
1,133,-1,../static/images/invador1.png,4,20,8,2.5,right,70,1,957,0.027762462053684,0,0,-1,5820,492,11.8292682926829,94.6341463414634,14.9314564378061,119.451651502449,-99.4516515024491,99.4516515024491,0,-1,-1,-1,1,-1,-1,1,-1,-1,0,0,-0,2,0,0
1,134,-1,../static/images/invador3.png,1,80,2,40,left,70,2,1270,1.43220056956555,0,0,-1,5820,494,11.7813765182186,23.5627530364372,13.8795034498202,27.7590068996403,52.2409931003597,52.2409931003597,1,1,1,1,-1,-1,1,-1,-1,1,0,-0,-0,2,0,-1
1,135,-1,../static/images/invador2.png,2,20,2,10,right,70,1,882,-0.308764241024238,0,0,-1,5900,498,11.8473895582329,23.6947791164659,15.0948321410355,30.189664282071,-10.189664282071,10.189664282071,0,-1,1,0,1,1,-1,-1,1,-1,1,1,1,2,0,1
1,137,-1,../static/images/invador3.png,1,80,2,40,left,70,2,1095,0.646971595717061,0,0,-1,5980,504,11.8650793650794,23.7301587301587,15.2195264995751,30.4390529991502,49.5609470008498,49.5609470008498,1,1,1,1,1,1,-1,1,1,1,1,1,1,2,0,1
1,138,-1,../static/images/invador4.png,3,80,8,10,right,70,1,924,-0.120309287300602,0,0,-1,6060,508,11.9291338582677,95.4330708661417,16.1951035977157,129.560828781726,-49.560828781726,49.560828781726,0,1,-1,0,1,1,1,1,-1,1,1,1,1,4,80,1
1,139,-1,../static/images/invador3.png,1,80,2,40,left,70,2,1440,2.1949944298755,0,0,-1,6060,510,11.8823529411765,23.7647058823529,15.0541239691496,30.1082479382992,49.8917520617008,49.8917520617008,1,1,1,1,1,-1,1,1,1,1,0,0,-0,4,80,0
1,142,-1,../static/images/invador3.png,1,80,2,40,left,70,2,951,0.000840325807450209,0,0,-1,6220,520,11.9615384615385,23.9230769230769,15.9556395148157,31.9112790296314,48.0887209703686,48.0887209703686,1,1,1,1,1,1,1,1,1,1,1,1,1,2,0,1
1,143,-1,../static/images/invador1.png,4,20,8,2.5,left,74,1,971,0.0905807799615628,0,0,-1,6300,524,12.0229007633588,96.1832061068702,16.7995142007335,134.396113605868,-114.396113605868,114.396113605868,0,-1,-1,-1,1,1,1,1,1,1,1,1,1,4,80,1
1,145,-1,../static/images/invador2.png,2,20,2,10,right,70,1,1004,0.238652529315849,0,0,-1,6380,530,12.0377358490566,24.0754716981132,16.5206026800985,33.041205360197,-13.041205360197,13.041205360197,0,-1,1,0,1,1,-1,-1,1,1,1,1,1,2,0,1
1,146,-1,../static/images/invador4.png,3,80,8,10,right,70,1,891,-0.268381036654888,0,0,-1,6380,532,11.9924812030075,95.9398496240601,15.3566909461664,122.853527569331,-42.8535275693311,42.8535275693311,0,1,-1,0,-1,1,1,1,-1,-1,0,-0,0,4,80,0
1,147,-1,../static/images/invador2.png,2,20,2,10,left,74,1,880,-0.31773828643965,0,0,-1,6380,534,11.9475655430712,23.8951310861423,14.2747792790973,28.5495585581945,-8.54955855819453,8.54955855819453,0,-1,1,0,1,-1,-1,1,1,1,0,0,-0,2,0,0
1,149,-1,../static/images/invador3.png,1,80,2,40,left,70,2,1059,0.485438778239658,0,0,-1,6400,546,11.7216117216117,23.4432234432234,9.67537303727648,19.350746074553,60.649253925447,60.649253925447,1,1,1,1,-1,-1,-1,1,1,-1,1,-1,-1,2,0,-1
1,150,-1,../static/images/invador3.png,1,80,2,40,right,74,2,965,0.063658643715329,0,0,-1,6480,550,11.7818181818182,23.5636363636364,11.6428880166945,23.285776033389,56.714223966611,56.714223966611,1,1,1,1,1,1,-1,-1,-1,1,1,1,1,10,20,1
1,151,-1,../static/images/invador4.png,3,80,8,10,left,74,1,975,0.108528870792385,0,0,-1,6560,554,11.841155234657,94.7292418772563,13.2583830433214,106.067064346571,-26.0670643465709,26.0670643465709,0,1,-1,0,1,1,1,1,-1,-1,1,1,1,4,80,1
1,153,-1,../static/images/invador3.png,1,80,2,40,right,74,2,903,-0.21453676416242,0,0,-1,6640,560,11.8571428571429,23.7142857142857,13.8178808588608,27.6357617177216,52.3642382822784,52.3642382822784,1,1,1,1,1,1,1,-1,1,1,1,1,1,2,0,1
1,185,1,../static/images/invador1.png,4,20,8,2.5,right,70,1,898,-0.236971877700948,0,0,-1,7220,802,9.00249376558603,72.0199501246883,4.5448456737703,36.3587653901624,-16.3587653901624,16.3587653901624,0,-1,-1,-1,-1,-1,1,-1,-1,-1,1,-1,-1,10,80,-1
1,186,1,../static/images/invador2.png,2,20,2,10,right,74,2,1039,0.395698324085546,0,0,-1,7220,804,8.98009950248756,17.9601990049751,4.22465159180838,8.44930318361676,11.5506968163832,11.5506968163832,1,-1,1,0,-1,-1,-1,-1,1,-1,0,-0,-0,10,20,-1
1,188,1,../static/images/invador1.png,4,20,8,2.5,right,70,1,820,-0.586959648901987,0,0,-1,7260,818,8.87530562347188,71.0024449877751,3.82204403069947,30.5763522455958,-10.5763522455958,10.5763522455958,0,-1,-1,-1,-1,-1,-1,1,-1,-1,1,-1,-1,4,20,-1
1,189,1,../static/images/invador1.png,4,20,8,2.5,right,70,1,878,-0.326712331855061,0,0,-1,7260,820,8.85365853658537,70.8292682926829,3.55277286783233,28.4221829426586,-8.4221829426586,8.4221829426586,0,-1,-1,-1,-1,-1,-1,-1,-1,1,0,-0,-0,10,20,-1
1,190,1,../static/images/invador1.png,4,20,8,2.5,right,70,1,947,-0.0171077650233723,0,0,-1,7260,822,8.83211678832117,70.6569343065693,3.30247243334231,26.4197794667384,-6.41977946673844,6.41977946673844,0,-1,-1,-1,-1,-1,-1,-1,-1,-1,0,-0,-0,2,0,-1
1,191,1,../static/images/invador4.png,3,80,8,10,right,74,2,1090,0.624536482178533,0,0,-1,7260,824,8.81067961165049,70.4854368932039,3.06980619890857,24.5584495912685,55.4415504087315,55.4415504087315,1,1,-1,0,-1,-1,-1,-1,-1,-1,0,-0,-0,2,0,-1
1,192,1,../static/images/invador3.png,1,80,2,40,left,70,2,1140,0.848887617563814,0,0,-1,7340,834,8.80095923261391,17.6019184652278,5.72307571771831,11.4461514354366,68.5538485645634,68.5538485645634,1,1,1,1,1,-1,-1,-1,-1,-1,1,1,-1,2,0,0
1,193,1,../static/images/invador2.png,2,20,2,10,left,74,1,664,-1.28693519130407,0,0,-1,7420,838,8.85441527446301,17.708830548926,8.39772001020473,16.7954400204095,3.20455997959053,3.20455997959053,0,-1,1,0,1,1,1,-1,-1,-1,1,1,1,10,80,1
1,195,1,../static/images/invador1.png,4,20,8,2.5,left,74,1,1017,0.296983824516022,0,0,-1,7420,842,8.81235154394299,70.4988123515439,7.2561275102717,58.0490200821736,-38.0490200821736,38.0490200821736,0,-1,-1,-1,-1,-1,-1,1,1,1,0,-0,-0,2,0,-1
1,196,1,../static/images/invador1.png,4,20,8,2.5,left,74,1,902,-0.219023786870126,0,0,-1,7420,844,8.7914691943128,70.3317535545024,6.74491783374539,53.9593426699632,-33.9593426699632,33.9593426699632,0,-1,-1,-1,-1,-1,-1,-1,-1,1,0,-0,-0,2,0,-1
1,197,1,../static/images/invador1.png,4,20,8,2.5,left,74,1,846,-0.470297058501641,0,0,-1,7420,846,8.77068557919622,70.1654846335697,6.26972397047543,50.1577917638034,-30.1577917638034,30.1577917638034,0,-1,-1,-1,-1,-1,-1,-1,-1,-1,0,-0,-0,2,0,-1
1,198,1,../static/images/invador4.png,3,80,8,10,left,70,2,1011,0.270061688269788,0,0,-1,7420,848,8.75,70,5.82800852951621,46.6240682361297,33.3759317638703,33.3759317638703,1,1,-1,0,-1,-1,-1,-1,-1,-1,0,-0,-0,2,0,-1
1,201,1,../static/images/invador1.png,4,20,8,2.5,right,74,2,1079,0.575179232393771,0,0,-1,7600,866,8.77598152424942,70.2078521939954,9.54250613013017,76.3400490410414,-56.3400490410414,56.3400490410414,1,-1,-1,-1,1,1,-1,1,1,-1,1,1,1,4,20,1
1,202,1,../static/images/invador1.png,4,20,8,2.5,right,70,1,849,-0.456835990378524,0,0,-1,7620,876,8.6986301369863,69.5890410958904,7.21775819975606,57.7420655980485,-37.7420655980485,37.7420655980485,0,-1,-1,-1,-1,-1,1,1,-1,1,1,-1,-1,4,80,-1
1,204,1,../static/images/invador1.png,4,20,8,2.5,right,70,1,861,-0.402991717886057,0,0,-1,7620,880,8.65909090909091,69.2727272727273,6.23657061346372,49.8925649077097,-29.8925649077097,29.8925649077097,0,-1,-1,-1,1,1,-1,-1,-1,-1,0,0,0,2,0,1
1,205,1,../static/images/invador1.png,4,20,8,2.5,right,70,1,787,-0.735031398256273,0,0,-1,7620,882,8.63945578231293,69.1156462585034,5.79719089729568,46.3775271783655,-26.3775271783655,26.3775271783655,0,-1,-1,-1,-1,-1,1,1,-1,-1,0,-0,-0,2,0,-1
1,207,1,../static/images/invador4.png,3,80,8,10,right,74,2,944,-0.0305688331464892,0,0,-1,7640,894,8.54586129753915,68.3668903803132,4.47844223171918,35.8275378537535,44.1724621462465,44.1724621462465,1,1,-1,0,-1,-1,-1,-1,-1,-1,1,-1,-1,2,0,-1
1,208,1,../static/images/invador1.png,4,20,8,2.5,left,74,1,789,-0.726057352840862,0,0,-1,7720,904,8.53982300884956,68.3185840707965,6.65204562132156,53.2163649705725,-33.2163649705725,33.2163649705725,0,-1,-1,-1,1,-1,-1,-1,-1,-1,1,1,-1,10,20,0
1,209,1,../static/images/invador2.png,2,20,2,10,left,70,2,1172,0.992472344210395,0,0,-1,7720,906,8.52097130242826,17.0419426048565,6.18339480371945,12.3667896074389,7.63321039256111,7.63321039256111,1,-1,1,0,-1,-1,1,-1,-1,-1,0,-0,-0,10,80,-1
1,210,1,../static/images/invador1.png,4,20,8,2.5,right,70,1,856,-0.425426831424585,0,0,-1,7740,910,8.50549450549451,68.043956043956,6.00173496269148,48.0138797015318,-28.0138797015318,28.0138797015318,0,-1,-1,-1,-1,1,-1,-1,1,-1,1,-1,1,2,0,0
1,211,1,../static/images/invador4.png,3,80,8,10,right,74,2,815,-0.609394762440515,0,0,-1,7740,912,8.48684210526316,67.8947368421053,5.5788999195461,44.6311993563688,35.3688006436312,35.3688006436312,1,1,-1,0,-1,-1,-1,1,-1,-1,0,-0,-0,4,20,-1
1,212,1,../static/images/invador1.png,4,20,8,2.5,left,74,1,1120,0.759147163409702,0,0,-1,7820,922,8.48156182212581,67.8524945770065,7.37777749837732,59.0222199870186,-39.0222199870186,39.0222199870186,0,-1,-1,-1,1,-1,-1,-1,-1,1,1,1,-1,2,0,0
1,213,1,../static/images/invador1.png,4,20,8,2.5,left,74,1,907,-0.196588673331598,0,0,-1,7820,924,8.46320346320346,67.7056277056277,6.8579973204395,54.863978563516,-34.863978563516,34.863978563516,0,-1,-1,-1,-1,-1,1,-1,-1,-1,0,-0,-0,10,80,-1
1,214,1,../static/images/invador3.png,1,80,2,40,right,74,2,927,-0.106848219177485,0,0,-1,7820,926,8.44492440604752,16.889848812095,6.37483676588237,12.7496735317647,67.2503264682353,67.2503264682353,1,1,1,1,-1,-1,-1,-1,1,-1,0,-0,-0,2,0,-1
1,215,1,../static/images/invador2.png,2,20,2,10,left,70,2,1183,1.04182959399516,0,0,-1,7900,930,8.49462365591398,16.989247311828,8.93287056451949,17.865741129039,2.13425887096103,2.13425887096103,1,-1,1,0,1,1,-1,-1,-1,-1,1,1,1,2,0,1
1,216,1,../static/images/invador1.png,4,20,8,2.5,right,70,1,825,-0.564524535363459,0,0,-1,7920,934,8.4796573875803,67.8372591006424,8.25928545855471,66.0742836684377,-46.0742836684377,46.0742836684377,0,-1,-1,-1,-1,1,1,1,-1,-1,1,-1,1,4,80,0
1,217,1,../static/images/invador1.png,4,20,8,2.5,right,70,1,801,-0.672213080348394,0,0,-1,7920,936,8.46153846153846,67.6923076923077,7.67740116260908,61.4192093008726,-41.4192093008726,41.4192093008726,0,-1,-1,-1,-1,-1,-1,1,1,1,0,-0,-0,4,20,-1
1,219,1,../static/images/invador3.png,1,80,2,40,right,74,2,1075,0.557231141562948,0,0,-1,8000,948,8.43881856540084,16.8776371308017,8.40499430839332,16.8099886167866,63.1900113832134,63.1900113832134,1,1,1,1,1,-1,-1,-1,-1,-1,1,1,-1,2,0,0
1,220,1,../static/images/invador1.png,4,20,8,2.5,right,70,1,811,-0.627342853271338,0,0,-1,8080,952,8.48739495798319,67.8991596638655,10.5998003960603,84.7984031684827,-64.7984031684827,64.7984031684827,0,-1,-1,-1,1,1,1,-1,-1,-1,1,1,1,10,80,1
1,221,1,../static/images/invador1.png,4,20,8,2.5,left,74,1,771,-0.806823761579563,0,0,-1,8080,954,8.46960167714885,67.7568134171908,9.85302182525343,78.8241746020274,-58.8241746020274,58.8241746020274,0,-1,-1,-1,-1,-1,1,1,1,-1,0,-0,-0,4,80,-1
1,222,1,../static/images/invador1.png,4,20,8,2.5,left,74,1,668,-1.26898710047324,0,0,-1,8080,956,8.45188284518829,67.6150627615063,9.15885539929631,73.2708431943705,-53.2708431943705,53.2708431943705,0,-1,-1,-1,-1,-1,-1,-1,1,1,0,-0,-0,2,0,-1
1,223,1,../static/images/invador2.png,2,20,2,10,left,70,2,1190,1.0732387529491,0,0,-1,8080,958,8.43423799582463,16.8684759916493,8.51359448024582,17.0271889604916,2.97281103950836,2.97281103950836,1,-1,1,0,-1,-1,-1,-1,-1,-1,0,-0,-0,2,0,-1
1,226,1,../static/images/invador1.png,4,20,8,2.5,left,74,1,764,-0.838232920533503,0,0,-1,8120,968,8.38842975206612,67.1074380165289,6.90054359313076,55.2043487450461,-35.2043487450461,35.2043487450461,0,-1,-1,-1,-1,-1,-1,1,-1,1,0,-0,-0,4,20,-1
1,227,1,../static/images/invador1.png,4,20,8,2.5,left,74,1,824,-0.569011558071165,0,0,-1,8120,970,8.37113402061856,66.9690721649485,6.41438556281688,51.3150845025351,-31.3150845025351,31.3150845025351,0,-1,-1,-1,-1,-1,-1,-1,-1,1,0,-0,-0,2,0,-1
1,228,1,../static/images/invador3.png,1,80,2,40,right,74,2,1253,1.35592118353455,0,0,-1,8120,972,8.35390946502058,16.7078189300412,5.9624784037929,11.9249568075858,68.0750431924142,68.0750431924142,1,1,1,1,-1,-1,-1,-1,-1,-1,0,-0,-0,2,0,-1
1,230,1,../static/images/invador1.png,4,20,8,2.5,left,74,1,837,-0.510680262870992,0,0,-1,8280,986,8.39756592292089,67.1805273833671,9.36637235687718,74.9309788550174,-54.9309788550174,54.9309788550174,0,-1,-1,-1,1,-1,1,1,-1,-1,1,1,-1,4,80,0
1,232,1,../static/images/invador1.png,4,20,8,2.5,left,74,1,723,-1.02220085154943,0,0,-1,8300,992,8.36693548387097,66.9354838709677,8.07340917413647,64.5872733930917,-44.5872733930917,44.5872733930917,0,-1,-1,-1,-1,1,-1,-1,1,-1,1,-1,1,2,0,0
1,234,1,../static/images/invador3.png,1,80,2,40,right,74,2,994,0.193782302238792,0,0,-1,8380,1004,8.34661354581673,16.6932270916335,8.64775511980191,17.2955102396038,62.7044897603962,62.7044897603962,1,1,1,1,1,-1,-1,-1,-1,1,1,1,-1,2,0,0
1,235,1,../static/images/invador1.png,4,20,8,2.5,right,70,1,791,-0.717083307425451,0,0,-1,8460,1008,8.39285714285714,67.1428571428571,10.7991274088623,86.3930192708983,-66.3930192708983,66.3930192708983,0,-1,-1,-1,1,1,1,-1,-1,-1,1,1,1,10,80,1
1,236,1,../static/images/invador1.png,4,20,8,2.5,right,70,1,955,0.0187884166382727,0,0,-1,8460,1010,8.37623762376238,67.009900990099,10.0383058243965,80.3064465951718,-60.3064465951718,60.3064465951718,0,-1,-1,-1,-1,-1,1,1,1,-1,0,-0,-0,4,80,-1
1,239,1,../static/images/invador3.png,1,80,2,40,left,70,2,695,-1.14783748736519,0,0,-1,8500,1032,8.23643410852713,16.4728682170543,5.59267894762239,11.1853578952448,68.8146421047552,68.8146421047552,1,1,1,1,-1,-1,-1,-1,-1,-1,1,-1,-1,10,20,-1
1,240,1,../static/images/invador2.png,2,20,2,10,right,74,2,911,-0.178640582500775,0,0,-1,8580,1036,8.28185328185328,16.5637065637066,8.29065331145946,16.5813066229189,3.41869337708108,3.41869337708108,1,-1,1,0,1,1,-1,-1,-1,-1,1,1,1,10,20,1
1,246,1,../static/images/invador1.png,4,20,8,2.5,right,70,1,788,-0.730544375548568,0,0,-1,8740,1082,8.07763401109057,64.6210720887246,4.52758877640798,36.2207102112638,-16.2207102112638,16.2207102112638,0,-1,-1,-1,-1,1,-1,-1,-1,-1,0,-0,0,10,20,0
1,247,1,../static/images/invador1.png,4,20,8,2.5,right,70,1,821,-0.582472626194282,0,0,-1,8740,1084,8.06273062730627,64.5018450184502,4.2086104797125,33.6688838377,-13.6688838377,13.6688838377,0,-1,-1,-1,-1,-1,-1,1,-1,-1,0,-0,-0,2,0,-1
1,248,1,../static/images/invador1.png,4,20,8,2.5,left,74,1,916,-0.156205468962247,0,0,-1,8740,1086,8.04788213627993,64.3830570902394,3.91210488510802,31.2968390808642,-11.2968390808642,11.2968390808642,0,-1,-1,-1,-1,-1,-1,-1,-1,1,0,-0,-0,2,0,-1
1,249,1,../static/images/invador1.png,4,20,8,2.5,right,70,1,810,-0.631829875979044,0,0,-1,8740,1088,8.03308823529412,64.2647058823529,3.63648874274807,29.0919099419845,-9.09190994198453,9.09190994198453,0,-1,-1,-1,-1,-1,-1,-1,-1,-1,0,-0,-0,2,0,-1
1,250,1,../static/images/invador3.png,1,80,2,40,left,70,2,989,0.171347188700264,0,0,-1,8740,1090,8.01834862385321,16.0366972477064,3.38029034611843,6.76058069223686,73.2394193077631,73.2394193077631,1,1,1,1,-1,-1,-1,-1,-1,-1,0,-0,-0,2,0,-1
1,251,1,../static/images/invador4.png,3,80,8,10,right,74,2,926,-0.111335241885191,0,0,-1,8820,1094,8.06215722120658,64.4972577696526,6.47409647703438,51.792771816275,28.207228183725,28.207228183725,1,1,-1,0,1,1,-1,-1,-1,-1,1,1,1,2,0,1
1,252,1,../static/images/invador1.png,4,20,8,2.5,left,74,1,763,-0.842719943241208,0,0,-1,8900,1104,8.06159420289855,64.4927536231884,7.96814338448671,63.7451470758937,-43.7451470758937,43.7451470758937,0,-1,-1,-1,1,-1,1,1,-1,-1,1,1,-1,4,80,0
1,253,1,../static/images/invador1.png,4,20,8,2.5,right,70,1,863,-0.394017672470645,0,0,-1,8900,1106,8.04701627486438,64.376130198915,7.40677066931151,59.2541653544921,-39.2541653544921,39.2541653544921,0,-1,-1,-1,-1,-1,1,-1,1,1,0,-0,-0,10,80,-1
1,254,1,../static/images/invador1.png,4,20,8,2.5,right,70,1,839,-0.50170621745558,0,0,-1,8900,1108,8.03249097472924,64.2599277978339,6.88494786057459,55.0795828845967,-35.0795828845967,35.0795828845967,0,-1,-1,-1,-1,-1,-1,-1,1,-1,0,-0,-0,2,0,-1
1,255,1,../static/images/invador4.png,3,80,8,10,left,70,2,1314,1.62962956870459,0,0,-1,8900,1110,8.01801801801802,64.1441441441441,6.39988858291961,51.1991086633569,28.8008913366431,28.8008913366431,1,1,-1,0,-1,-1,-1,-1,-1,-1,0,-0,-0,2,0,-1
1,256,1,../static/images/invador1.png,4,20,8,2.5,left,74,1,801,-0.672213080348394,0,0,-1,8980,1120,8.01785714285714,64.1428571428571,7.91920462483788,63.3536369987031,-43.3536369987031,43.3536369987031,0,-1,-1,-1,1,-1,-1,-1,-1,-1,1,1,-1,2,0,0
1,258,1,../static/images/invador3.png,1,80,2,40,left,70,2,1030,0.355315119716195,0,0,-1,9000,1126,7.99289520426288,15.9857904085258,6.96887742015533,13.9377548403107,66.0622451596893,66.0622451596893,1,1,1,1,-1,1,-1,-1,1,-1,1,-1,1,2,0,0
1,259,1,../static/images/invador4.png,3,80,8,10,left,70,2,1347,1.77770131805888,0,0,-1,9080,1130,8.03539823008849,64.283185840708,9.42062782819022,75.3650226255218,4.63497737447823,4.63497737447823,1,1,-1,0,1,1,-1,1,-1,-1,1,1,1,4,20,1
1,264,1,../static/images/invador3.png,1,80,2,40,left,70,2,1097,0.655945641132472,0,0,-1,9220,1166,7.9073756432247,15.8147512864494,5.1552966241421,10.3105932482842,69.6894067517158,69.6894067517158,1,1,1,1,-1,-1,-1,-1,-1,-1,1,-1,-1,2,0,-1
1,266,1,../static/images/invador3.png,1,80,2,40,left,70,2,1050,0.445055573870308,0,0,-1,9300,1172,7.93515358361775,15.8703071672355,7.37273277262481,14.7454655452496,65.2545344547504,65.2545344547504,1,1,1,1,-1,-1,1,1,-1,-1,0,-0,-0,4,80,-1
1,267,1,../static/images/invador1.png,4,20,8,2.5,right,70,1,791,-0.717083307425451,0,0,-1,9380,1176,7.97619047619048,63.8095238095238,9.75222698764569,78.0178159011655,-58.0178159011655,58.0178159011655,0,-1,-1,-1,1,1,-1,-1,1,1,1,1,1,2,0,1
1,268,1,../static/images/invador1.png,4,20,8,2.5,left,74,1,641,-1.3901367135813,0,0,-1,9380,1178,7.96264855687606,63.7011884550085,9.06516177321718,72.5212941857374,-52.5212941857374,52.5212941857374,0,-1,-1,-1,-1,-1,1,1,-1,-1,0,-0,-0,4,80,-1
1,270,1,../static/images/invador1.png,4,20,8,2.5,right,70,1,847,-0.465810035793935,0,0,-1,9400,1184,7.93918918918919,63.5135135135135,7.84351415442177,62.7481132353741,-42.7481132353741,42.7481132353741,0,-1,-1,-1,-1,1,-1,-1,-1,-1,1,-1,1,2,0,0
1,271,1,../static/images/invador1.png,4,20,8,2.5,left,74,1,702,-1.11642832841125,0,0,-1,9400,1186,7.92580101180438,63.4064080944351,7.29092183461545,58.3273746769236,-38.3273746769236,38.3273746769236,0,-1,-1,-1,-1,-1,-1,1,-1,-1,0,-0,-0,4,20,-1
1,272,1,../static/images/invador4.png,3,80,8,10,right,74,2,1207,1.14951813898009,0,0,-1,9400,1188,7.91245791245791,63.2996632996633,6.7772608236456,54.2180865891648,25.7819134108352,25.7819134108352,1,1,-1,0,-1,-1,-1,-1,-1,1,0,-0,-0,2,0,-1
1,273,1,../static/images/invador4.png,3,80,8,10,left,70,2,1276,1.45912270581178,0,0,-1,9480,1198,7.91318864774624,63.30550918197,8.16807477008774,65.3445981607019,14.6554018392981,14.6554018392981,1,1,-1,0,1,-1,-1,-1,-1,-1,1,1,-1,2,0,0
1,274,1,../static/images/invador1.png,4,20,8,2.5,left,74,1,844,-0.479271103917052,0,0,-1,9560,1208,7.91390728476821,63.3112582781457,9.08529133111698,72.6823306489358,-52.6823306489358,52.6823306489358,0,-1,-1,-1,1,-1,1,-1,-1,-1,1,1,-1,10,80,0
1,275,1,../static/images/invador1.png,4,20,8,2.5,left,74,1,654,-1.33180541838112,0,0,-1,9560,1210,7.90082644628099,63.2066115702479,8.44521315774518,67.5617052619615,-47.5617052619615,47.5617052619615,0,-1,-1,-1,-1,-1,1,-1,1,-1,0,-0,-0,10,80,-1
1,276,1,../static/images/invador1.png,4,20,8,2.5,left,74,1,649,-1.35424053191965,0,0,-1,9560,1212,7.88778877887789,63.1023102310231,7.85022985839507,62.8018388671605,-42.8018388671605,42.8018388671605,0,-1,-1,-1,-1,-1,-1,-1,1,-1,0,-0,-0,2,0,-1
1,277,1,../static/images/invador3.png,1,80,2,40,right,74,2,1181,1.03285554857975,0,0,-1,9560,1214,7.87479406919275,15.7495881383855,7.29716440290433,14.5943288058087,65.4056711941913,65.4056711941913,1,1,1,1,-1,-1,-1,-1,-1,-1,0,-0,-0,2,0,-1
1,278,1,../static/images/invador2.png,2,20,2,10,left,70,2,1178,1.01939448045663,0,0,-1,9640,1218,7.91461412151067,15.8292282430213,9.69017901000344,19.3803580200069,0.619641979993126,0.619641979993126,1,-1,1,0,1,1,-1,-1,-1,-1,1,1,1,2,0,1
1,279,1,../static/images/invador1.png,4,20,8,2.5,left,74,1,775,-0.788875670748741,0,0,-1,9660,1222,7.9050736497545,63.240589198036,8.88109928975802,71.0487943180641,-51.0487943180641,51.0487943180641,0,-1,-1,-1,-1,1,1,1,-1,-1,1,-1,1,4,80,0
1,280,1,../static/images/invador1.png,4,20,8,2.5,right,70,1,796,-0.694648193886922,0,0,-1,9660,1224,7.8921568627451,63.1372549019608,8.25540688169486,66.0432550535589,-46.0432550535589,46.0432550535589,0,-1,-1,-1,-1,-1,-1,1,1,1,0,-0,-0,4,20,-1
1,281,1,../static/images/invador1.png,4,20,8,2.5,left,74,1,598,-1.58307869001264,0,0,-1,9660,1226,7.87928221859706,63.0342577487765,7.67379583977062,61.390366718165,-41.390366718165,41.390366718165,0,-1,-1,-1,-1,-1,-1,-1,-1,1,0,-0,-0,2,0,-1
1,283,1,../static/images/invador3.png,1,80,2,40,left,70,2,1193,1.08669982107221,0,0,-1,9740,1238,7.86752827140549,15.735056542811,8.40278417356732,16.8055683471346,63.1944316528654,63.1944316528654,1,1,1,1,1,-1,-1,-1,-1,-1,1,1,-1,2,0,0
2,0,1,../static/images/invador2.png,1,80,2,40,left,70,2,1390,1.78207659425499,0,0,1,0,2,0,0,6.19504146034456,12.3900829206891,67.6099170793109,67.6099170793109,1,1,1,1,NaN,NaN,NaN,NaN,NaN,NaN,NaN,NaN,NaN,0,0,NaN
2,1,1,../static/images/invador3.png,3,80,8,10,left,70,2,1376,1.71338659719061,0,0,1,80,6,13.3333333333333,106.666666666667,5.93235599116357,47.4588479293085,32.5411520706915,32.5411520706915,1,1,-1,0,1,1,NaN,NaN,NaN,NaN,1,1,1,2,0,1
2,2,1,../static/images/invador1.png,4,20,8,2.5,right,74,2,1372,1.69376088374365,0,0,1,160,16,10,80,4.31070711188643,34.4856568950915,-14.4856568950915,14.4856568950915,1,-1,-1,-1,1,-1,1,1,NaN,NaN,1,1,-1,4,80,0
2,3,1,../static/images/invador1.png,4,20,8,2.5,left,74,1,1348,1.57600660306187,0,0,1,180,26,6.92307692307692,55.3846153846154,2.56559639700158,20.5247711760126,-0.524771176012639,0.524771176012639,0,-1,-1,-1,-1,-1,1,-1,1,1,1,-1,-1,10,80,-1
2,4,1,../static/images/invador1.png,4,20,8,2.5,left,74,1,1272,1.20311804756956,0,0,1,180,28,6.42857142857143,51.4285714285714,2.26409915241245,18.1127932192996,1.88720678070038,1.88720678070038,0,-1,-1,-1,-1,-1,-1,-1,1,-1,0,-0,-0,10,20,-1
2,6,1,../static/images/invador4.png,2,20,2,10,left,74,1,22,-4.92991740460653,0,0,1,180,32,5.625,11.25,1.76323278486085,3.5264655697217,16.4735344302783,16.4735344302783,0,-1,1,0,-1,-1,-1,-1,-1,-1,0,-0,-0,2,0,-1
2,7,1,../static/images/invador1.png,4,20,8,2.5,right,74,2,1406,1.86057944804284,0,0,1,180,34,5.29411764705882,42.3529411764706,1.55602567043473,12.4482053634778,7.55179463652219,7.55179463652219,1,-1,-1,-1,-1,1,-1,-1,-1,-1,0,-0,0,2,0,0
2,8,1,../static/images/invador3.png,3,80,8,10,right,74,2,1432,1.9881465854481,0,0,1,200,44,4.54545454545455,36.3636363636364,1.11605675072413,8.92845400579306,71.0715459942069,71.0715459942069,1,1,-1,0,-1,-1,-1,1,-1,-1,1,-1,-1,2,0,-1
2,10,1,../static/images/invador4.png,2,20,2,10,left,70,2,1330,1.48769089255053,0,0,1,300,64,4.6875,9.375,1.23198010525094,2.46396021050187,17.5360397894981,17.5360397894981,1,-1,1,0,-1,-1,1,-1,-1,-1,1,-1,-1,10,80,-1
2,11,1,../static/images/invador2.png,1,80,2,40,left,70,2,1478,2.21384229008818,0,0,1,320,68,4.70588235294118,9.41176470588235,1.24054221944351,2.48108443888703,77.518915561113,77.518915561113,1,1,1,1,-1,1,-1,-1,1,-1,1,-1,1,10,20,0
2,12,1,../static/images/invador1.png,4,20,8,2.5,right,70,1,1460,2.12552657957685,0,0,1,400,72,5.55555555555556,44.4444444444444,2.13888151825851,17.111052146068,2.88894785393196,2.88894785393196,0,-1,-1,-1,1,1,-1,1,-1,-1,1,1,1,4,20,1
2,14,1,../static/images/invador1.png,4,20,8,2.5,left,74,1,1194,0.820416635353773,0,0,1,420,84,5,40,1.29049742191104,10.3239793752883,9.67602062471169,9.67602062471169,0,-1,-1,-1,-1,-1,-1,-1,1,1,1,-1,-1,2,0,-1
2,15,1,../static/images/invador1.png,4,20,8,2.5,right,70,1,1082,0.270896658838795,0,0,1,420,86,4.88372093023256,39.0697674418605,1.13884402182431,9.11075217459448,10.8892478254055,10.8892478254055,0,-1,-1,-1,-1,-1,-1,-1,-1,-1,0,-0,-0,10,20,-1
2,16,1,../static/images/invador4.png,2,20,2,10,left,70,2,1332,1.49750374927401,0,0,1,420,88,4.77272727272727,9.54545454545454,1.00501224103521,2.01002448207041,17.9899755179296,17.9899755179296,1,-1,1,0,-1,-1,-1,-1,-1,-1,0,-0,-0,2,0,-1
2,17,1,../static/images/invador1.png,4,20,8,2.5,right,70,1,1178,0.741913781565919,0,0,1,440,92,4.78260869565217,38.2608695652174,1.06676142804398,8.53409142435187,11.4659085756481,11.4659085756481,0,-1,-1,-1,-1,1,-1,-1,-1,-1,1,-1,1,2,0,0
2,18,1,../static/images/invador3.png,3,80,8,10,right,74,2,1246,1.0755509101643,0,0,1,440,94,4.68085106382979,37.4468085106383,0.941400466528327,7.53120373222662,72.4687962677734,72.4687962677734,1,1,-1,0,-1,-1,-1,1,-1,-1,0,-0,-0,4,20,-1
2,19,1,../static/images/invador2.png,1,80,2,40,left,74,1,1618,2.90074226073191,0,0,1,520,104,5,10,1.68441871537637,3.36883743075274,76.6311625692473,76.6311625692473,0,1,1,1,1,-1,-1,-1,-1,1,1,1,-1,2,0,0
2,20,1,../static/images/invador1.png,4,20,8,2.5,right,70,1,1270,1.19330519084608,0,0,1,520,106,4.90566037735849,39.2452830188679,1.48647347269757,11.8917877815806,8.10821221841945,8.10821221841945,0,-1,-1,-1,1,1,1,-1,-1,-1,0,0,0,10,80,1
2,21,1,../static/images/invador1.png,4,20,8,2.5,left,74,1,1000,-0.131430466823957,0,0,1,520,108,4.81481481481481,38.5185185185185,1.3117898565618,10.4943188524944,9.50568114750564,9.50568114750564,0,-1,-1,-1,-1,-1,1,1,1,-1,0,-0,-0,2,0,-1
2,22,1,../static/images/invador1.png,4,20,8,2.5,left,74,1,1162,0.663410927778065,0,0,1,520,110,4.72727272727273,37.8181818181818,1.15763426619085,9.2610741295268,10.7389258704732,10.7389258704732,0,-1,-1,-1,-1,-1,-1,-1,1,1,0,-0,-0,2,0,-1
2,23,1,../static/images/invador2.png,1,80,2,40,right,70,1,1770,3.64651937171652,0,0,1,520,112,4.64285714285714,9.28571428571429,1.02159434116351,2.04318868232703,77.956811317673,77.956811317673,0,1,1,1,-1,-1,-1,-1,-1,-1,0,-0,-0,2,0,-1
2,25,1,../static/images/invador1.png,4,20,8,2.5,right,70,1,1390,1.78207659425499,0,0,1,520,116,4.48275862068965,35.8620689655172,0.79559617927885,6.3647694342308,13.6352305657692,13.6352305657692,0,-1,-1,-1,1,-1,1,1,-1,-1,0,0,-0,2,0,0
2,26,1,../static/images/invador4.png,2,20,2,10,left,74,1,1364,1.65450945684972,0,0,1,520,118,4.40677966101695,8.8135593220339,0.70210132711171,1.40420265422342,18.5957973457766,18.5957973457766,0,-1,1,0,-1,-1,1,-1,1,1,0,-0,-0,2,0,-1
2,27,1,../static/images/invador1.png,4,20,8,2.5,left,74,1,1172,0.712475211395474,0,0,1,520,120,4.33333333333333,34.6666666666667,0.619593565643872,4.95674852515098,15.043251474849,15.043251474849,0,-1,-1,-1,-1,1,-1,-1,1,-1,0,-0,0,2,0,0
2,28,1,../static/images/invador4.png,2,20,2,10,right,70,1,1282,1.25218233118697,0,0,1,520,122,4.26229508196721,8.52459016393443,0.546781741841383,1.09356348368277,18.9064365163172,18.9064365163172,0,-1,1,0,-1,-1,-1,1,-1,-1,0,-0,-0,2,0,-1
2,29,1,../static/images/invador1.png,4,20,8,2.5,left,74,1,1052,0.123703807986569,0,0,1,520,124,4.19354838709677,33.5483870967742,0.482526433114927,3.86021146491941,16.1397885350806,16.1397885350806,0,-1,-1,-1,-1,1,-1,-1,-1,1,0,-0,0,2,0,0
2,32,1,../static/images/invador2.png,1,80,2,40,right,70,1,1494,2.29234514387604,0,0,1,600,138,4.34782608695652,8.69565217391304,1.24705343635314,2.49410687270627,77.5058931272937,77.5058931272937,0,1,1,1,-1,-1,1,-1,-1,-1,0,-0,-0,10,80,-1
2,33,1,../static/images/invador1.png,4,20,8,2.5,right,70,1,1168,0.692849497948511,0,0,1,600,140,4.28571428571429,34.2857142857143,1.10050537627818,8.80404301022546,11.1959569897745,11.1959569897745,0,-1,-1,-1,1,1,-1,-1,1,-1,0,0,0,2,0,1
2,35,1,../static/images/invador1.png,4,20,8,2.5,right,70,1,962,-0.31787474457011,0,0,1,620,152,4.07894736842105,32.6315789473684,0.808304843985393,6.46643875188314,13.5335612481169,13.5335612481169,0,-1,-1,-1,-1,-1,-1,-1,1,1,1,-1,-1,2,0,-1
2,36,1,../static/images/invador4.png,2,20,2,10,right,70,1,1198,0.840042348800737,0,0,1,620,154,4.02597402597403,8.05194805194805,0.713316527220349,1.4266330544407,18.5733669455593,18.5733669455593,0,-1,1,0,-1,-1,-1,-1,-1,-1,0,-0,-0,10,20,-1
2,37,1,../static/images/invador1.png,4,20,8,2.5,left,74,1,1006,-0.101991896653511,0,0,1,620,156,3.97435897435897,31.7948717948718,0.629490806336049,5.03592645068839,14.9640735493116,14.9640735493116,0,-1,-1,-1,-1,1,-1,-1,-1,-1,0,-0,0,2,0,0
2,39,1,../static/images/invador3.png,3,80,8,10,right,74,2,1442,2.03721086906551,0,0,1,640,168,3.80952380952381,30.4761904761905,0.589578969479272,4.71663175583418,75.2833682441658,75.2833682441658,1,1,-1,0,-1,-1,-1,-1,-1,1,1,-1,-1,2,0,-1
2,40,1,../static/images/invador1.png,4,20,8,2.5,right,70,1,1112,0.418089509691022,0,0,1,720,178,4.04494382022472,32.3595505617978,1.4992868882579,11.9942951060632,8.00570489393679,8.00570489393679,0,-1,-1,-1,1,-1,-1,-1,-1,-1,1,1,-1,10,20,0
2,41,1,../static/images/invador2.png,1,80,2,40,left,70,2,1444,2.04702372578899,0,0,1,720,180,4,8,1.3230974976793,2.6461949953586,77.3538050046414,77.3538050046414,1,1,1,1,-1,-1,1,-1,-1,-1,0,-0,-0,10,80,-1
2,42,1,../static/images/invador1.png,4,20,8,2.5,left,74,1,944,-0.406190455081446,0,0,1,800,184,4.34782608695652,34.7826086956522,2.20209100227774,17.6167280182219,2.38327198177811,2.38327198177811,0,-1,-1,-1,1,1,-1,-1,1,-1,1,1,1,2,0,1
2,43,1,../static/images/invador1.png,4,20,8,2.5,left,74,1,1112,0.418089509691022,0,0,1,800,186,4.3010752688172,34.4086021505376,1.94331126190346,15.5464900952277,4.45350990477232,4.45350990477232,0,-1,-1,-1,-1,-1,1,1,-1,-1,0,-0,-0,4,80,-1
2,45,1,../static/images/invador3.png,3,80,8,10,left,70,2,1096,0.339586655903168,0,0,1,800,190,4.21052631578947,33.6842105263158,1.51340992488181,12.1072793990545,67.8927206009455,67.8927206009455,1,1,-1,0,-1,1,-1,-1,-1,-1,0,-0,0,2,0,0
2,46,1,../static/images/invador1.png,4,20,8,2.5,left,74,1,946,-0.396377598357964,0,0,1,880,200,4.4,35.2,1.98541554769688,15.883324381575,4.11667561842497,4.11667561842497,0,-1,-1,-1,1,-1,-1,1,-1,-1,1,1,-1,2,0,0
2,48,1,../static/images/invador1.png,4,20,8,2.5,left,74,1,892,-0.661324729891971,0,0,1,880,204,4.31372549019608,34.5098039215686,1.54619985681345,12.3695988545076,7.63040114549236,7.63040114549236,0,-1,-1,-1,1,1,-1,-1,1,-1,0,0,0,2,0,1
2,50,1,../static/images/invador1.png,4,20,8,2.5,left,74,1,896,-0.641699016445008,0,0,1,960,216,4.44444444444444,35.5555555555556,1.90705639220519,15.2564511376415,4.74354886235849,4.74354886235849,0,-1,-1,-1,1,-1,-1,-1,1,1,1,1,-1,2,0,0
2,52,1,../static/images/invador1.png,4,20,8,2.5,right,70,1,1128,0.496592363478876,0,0,1,980,222,4.41441441441441,35.3153153153153,1.58583127486609,12.6866501989288,7.31334980107124,7.31334980107124,0,-1,-1,-1,-1,1,-1,-1,1,-1,1,-1,1,2,0,0
2,53,1,../static/images/invador2.png,1,80,2,40,left,70,2,1108,0.398463796244058,0,0,1,980,224,4.375,8.75,1.39947158075592,2.79894316151183,77.2010568384882,77.2010568384882,1,1,1,1,-1,-1,-1,1,-1,-1,0,-0,-0,4,20,-1
2,54,1,../static/images/invador1.png,4,20,8,2.5,right,70,1,994,-0.160869036994402,0,0,1,1060,228,4.64912280701754,37.1929824561403,2.26056777671155,18.0845422136924,1.91545778630759,1.91545778630759,0,-1,-1,-1,1,1,-1,-1,-1,1,1,1,1,2,0,1
2,55,1,../static/images/invador1.png,4,20,8,2.5,right,70,1,924,-0.504319022316263,0,0,1,1060,230,4.60869565217391,36.8695652173913,1.99491611120327,15.9593288896262,4.0406711103738,4.0406711103738,0,-1,-1,-1,-1,-1,1,1,-1,-1,0,-0,-0,4,80,-1
2,56,1,../static/images/invador4.png,2,20,2,10,right,70,1,1394,1.80170230770195,0,0,1,1060,232,4.56896551724138,9.13793103448276,1.76048262376263,3.52096524752525,16.4790347524747,16.4790347524747,0,-1,1,0,-1,-1,-1,-1,1,1,0,-0,-0,2,0,-1
2,57,1,../static/images/invador1.png,4,20,8,2.5,right,70,1,1198,0.840042348800737,0,0,1,1060,234,4.52991452991453,36.2393162393162,1.55359869578713,12.428789566297,7.57121043370297,7.57121043370297,0,-1,-1,-1,-1,1,-1,-1,-1,-1,0,-0,0,2,0,0
2,58,1,../static/images/invador3.png,3,80,8,10,right,74,2,1288,1.28162090135742,0,0,1,1060,236,4.49152542372881,35.9322033898305,1.37102682808241,10.9682146246593,69.0317853753407,69.0317853753407,1,1,-1,0,-1,-1,-1,1,-1,-1,0,-0,-0,2,0,-1
2,59,1,../static/images/invador1.png,4,20,8,2.5,right,70,1,988,-0.190307607164847,0,0,1,1140,246,4.63414634146341,37.0731707317073,1.91049220423335,15.2839376338668,4.71606236613319,4.71606236613319,0,-1,-1,-1,1,-1,-1,-1,-1,1,1,1,-1,2,0,0
2,60,1,../static/images/invador2.png,1,80,2,40,right,74,2,1228,0.987235199652963,0,0,1,1140,248,4.59677419354839,9.19354838709677,1.68597983118101,3.37195966236202,76.628040337638,76.628040337638,1,1,1,1,-1,-1,1,-1,-1,-1,0,-0,-0,10,80,-1
2,61,1,../static/images/invador1.png,4,20,8,2.5,right,70,1,916,-0.54357044921019,0,0,1,1220,252,4.84126984126984,38.7301587301587,2.47993641144498,19.8394912915598,0.160508708440151,0.160508708440151,0,-1,-1,-1,1,1,-1,-1,1,-1,1,1,1,2,0,1
2,62,1,../static/images/invador1.png,4,20,8,2.5,left,74,1,1006,-0.101991896653511,0,0,1,1220,254,4.80314960629921,38.4251968503937,2.18850553958971,17.5080443167177,2.49195568328231,2.49195568328231,0,-1,-1,-1,-1,-1,1,1,-1,-1,0,-0,-0,4,80,-1
2,64,1,../static/images/invador1.png,4,20,8,2.5,right,70,1,912,-0.563196162657154,0,0,1,1300,260,5,40,2.6677859501427,21.3422876011416,-1.34228760114161,1.34228760114161,0,-1,-1,-1,1,1,-1,-1,-1,-1,1,1,1,2,0,1
2,65,1,../static/images/invador1.png,4,20,8,2.5,left,74,1,938,-0.435629025251891,0,0,1,1300,262,4.9618320610687,39.6946564885496,2.3542798530568,18.8342388244544,1.16576117554559,1.16576117554559,0,-1,-1,-1,-1,-1,1,1,-1,-1,0,-0,-0,4,80,-1
2,66,1,../static/images/invador4.png,2,20,2,10,left,74,1,1158,0.643785214331102,0,0,1,1300,264,4.92424242424242,9.84848484848485,2.07761556964969,4.15523113929937,15.8447688607006,15.8447688607006,0,-1,1,0,-1,-1,-1,-1,1,1,0,-0,-0,2,0,-1
2,67,1,../static/images/invador1.png,4,20,8,2.5,left,74,1,1124,0.476966650031912,0,0,1,1300,266,4.88721804511278,39.0977443609023,1.83346361718478,14.6677089374783,5.33229106252172,5.33229106252172,0,-1,-1,-1,-1,1,-1,-1,-1,-1,0,-0,0,2,0,0
2,68,1,../static/images/invador3.png,3,80,8,10,left,70,2,1006,-0.101991896653511,0,0,1,1300,268,4.85074626865672,38.8059701492537,1.61800329408733,12.9440263526986,67.0559736473014,67.0559736473014,1,1,-1,0,-1,-1,-1,1,-1,-1,0,-0,-0,2,0,-1
2,69,1,../static/images/invador1.png,4,20,8,2.5,right,70,1,940,-0.425816168528409,0,0,1,1380,278,4.96402877697842,39.7122302158273,2.04045357609454,16.3236286087563,3.67637139124366,3.67637139124366,0,-1,-1,-1,1,-1,-1,-1,-1,1,1,1,-1,2,0,0
2,70,1,../static/images/invador1.png,4,20,8,2.5,left,74,1,904,-0.602447589551081,0,0,1,1380,280,4.92857142857143,39.4285714285714,1.80066873245214,14.4053498596171,5.59465014038288,5.59465014038288,0,-1,-1,-1,-1,-1,1,-1,-1,-1,0,-0,-0,10,80,-1
2,72,1,../static/images/invador1.png,4,20,8,2.5,right,70,1,1070,0.212019518497905,0,0,1,1380,284,4.85915492957746,38.8732394366197,1.40232292404262,11.218583392341,8.78141660765904,8.78141660765904,0,-1,-1,-1,-1,1,-1,-1,-1,-1,0,-0,0,2,0,0
2,73,1,../static/images/invador1.png,4,20,8,2.5,left,74,1,940,-0.425816168528409,0,0,1,1380,286,4.82517482517482,38.6013986013986,1.23752829846662,9.90022638773293,10.0997736122671,10.0997736122671,0,-1,-1,-1,-1,-1,-1,1,-1,-1,0,-0,-0,2,0,-1
2,76,1,../static/images/invador2.png,1,80,2,40,left,70,2,1038,0.0550138109221967,0,0,1,1460,300,4.86666666666667,9.73333333333333,1.55645389269616,3.11290778539232,76.8870922146077,76.8870922146077,1,1,1,1,-1,-1,1,-1,-1,-1,0,-0,-0,10,80,-1
2,79,1,../static/images/invador1.png,4,20,8,2.5,left,74,1,928,-0.4846933088693,0,0,1,1560,316,4.93670886075949,39.4936708860759,1.40282047347393,11.2225637877914,8.77743621220856,8.77743621220856,0,-1,-1,-1,-1,-1,-1,-1,1,1,1,-1,-1,2,0,-1
2,80,1,../static/images/invador1.png,4,20,8,2.5,right,70,1,792,-1.15196756606606,0,0,1,1560,318,4.90566037735849,39.2452830188679,1.23796737814689,9.90373902517514,10.0962609748249,10.0962609748249,0,-1,-1,-1,-1,-1,-1,-1,-1,-1,0,-0,-0,10,20,-1
2,81,1,../static/images/invador3.png,3,80,8,10,right,74,2,1030,0.0157623840282697,0,0,1,1560,320,4.875,39,1.09248707039516,8.73989656316132,71.2601034368387,71.2601034368387,1,1,-1,0,-1,-1,-1,-1,-1,-1,0,-0,-0,2,0,-1
2,82,1,../static/images/invador4.png,2,20,2,10,right,70,1,1112,0.418089509691022,0,0,1,1640,330,4.96969696969697,9.93939393939394,1.76392192726536,3.52784385453071,16.4721561454693,16.4721561454693,0,-1,1,0,1,-1,-1,-1,-1,-1,1,1,-1,2,0,0
2,83,1,../static/images/invador2.png,1,80,2,40,right,74,2,1112,0.418089509691022,0,0,1,1640,332,4.93975903614458,9.87951807228916,1.55663382795153,3.11326765590307,76.8867323440969,76.8867323440969,1,1,1,1,-1,1,1,-1,-1,-1,0,-0,0,10,80,0
2,84,1,../static/images/invador1.png,4,20,8,2.5,left,74,1,912,-0.563196162657154,0,0,1,1720,336,5.11904761904762,40.9523809523809,2.38090102208158,19.0472081766526,0.952791823347351,0.952791823347351,0,-1,-1,-1,1,1,-1,1,1,-1,1,1,1,2,0,1
2,86,1,../static/images/invador4.png,2,20,2,10,left,74,1,1066,0.192393805050941,0,0,1,1740,348,5,10,1.4028844498277,2.80576889965539,17.1942311003446,17.1942311003446,0,-1,1,0,-1,-1,-1,-1,1,1,1,-1,-1,2,0,-1
2,87,1,../static/images/invador2.png,1,80,2,40,left,70,2,1110,0.40827665296754,0,0,1,1740,350,4.97142857142857,9.94285714285714,1.23802383628992,2.47604767257985,77.5239523274202,77.5239523274202,1,1,1,1,-1,1,-1,-1,-1,-1,0,-0,0,10,20,0
2,88,1,../static/images/invador1.png,4,20,8,2.5,right,70,1,998,-0.141243323547438,0,0,1,1820,354,5.14124293785311,41.1299435028249,2.13695328661659,17.0956262929327,2.90437370706727,2.90437370706727,0,-1,-1,-1,1,1,-1,1,-1,-1,1,1,1,2,0,1
2,89,1,../static/images/invador3.png,3,80,8,10,left,70,2,1020,-0.0333018995891391,0,0,1,1820,356,5.1123595505618,40.8988764044944,1.8858282349586,15.0866258796688,64.9133741203312,64.9133741203312,1,1,-1,0,-1,-1,1,1,-1,1,0,-0,-0,4,80,-1
2,92,1,../static/images/invador2.png,1,80,2,40,left,70,2,1142,0.565282360543248,0,0,1,1920,378,5.07936507936508,10.1587301587302,1.27530233721183,2.55060467442365,77.4493953255763,77.4493953255763,1,1,1,1,-1,-1,-1,-1,1,-1,0,-0,-0,10,20,-1
2,94,1,../static/images/invador1.png,4,20,8,2.5,right,70,1,1156,0.63397235760762,0,0,1,2000,384,5.20833333333333,41.6666666666667,1.9110167720212,15.2881341761696,4.71186582383037,4.71186582383037,0,-1,-1,-1,-1,-1,1,1,-1,-1,0,-0,-0,4,80,-1
2,99,1,../static/images/invador1.png,4,20,8,2.5,left,74,1,882,-0.71038901350938,0,0,1,2020,402,5.02487562189055,40.1990049751244,0.907151373692335,7.25721098953868,12.7427890104613,12.7427890104613,0,-1,-1,-1,-1,-1,1,-1,-1,1,1,-1,-1,2,0,-1
2,100,1,../static/images/invador2.png,1,80,2,40,right,74,2,978,-0.239371890782256,0,0,1,2020,404,5,10,0.800547061372157,1.60109412274431,78.3989058772557,78.3989058772557,1,1,1,1,-1,-1,-1,-1,1,-1,0,-0,-0,10,20,-1
2,101,1,../static/images/invador1.png,4,20,8,2.5,right,70,1,924,-0.504319022316263,0,0,1,2100,408,5.14705882352941,41.1764705882353,1.80199370796953,14.4159496637563,5.58405033624372,5.58405033624372,0,-1,-1,-1,1,1,-1,-1,-1,-1,1,1,1,2,0,1
2,103,1,../static/images/invador3.png,3,80,8,10,left,70,2,894,-0.651511873168489,0,0,1,2100,412,5.09708737864078,40.7766990291262,1.40335478709902,11.2268382967922,68.7731617032078,68.7731617032078,1,1,-1,0,-1,-1,-1,-1,1,1,0,-0,-0,2,0,-1
2,104,1,../static/images/invador4.png,2,20,2,10,right,70,1,1040,0.0648266676456784,0,0,1,2180,422,5.16587677725119,10.3317535545024,1.9275034845842,3.8550069691684,16.1449930308316,16.1449930308316,0,-1,1,0,1,-1,-1,-1,-1,-1,1,1,-1,2,0,0
2,105,1,../static/images/invador1.png,4,20,8,2.5,left,74,1,866,-0.788891867297234,0,0,1,2180,424,5.14150943396226,41.1320754716981,1.7009920230709,13.6079361845672,6.39206381543278,6.39206381543278,0,-1,-1,-1,-1,1,1,-1,-1,-1,0,-0,0,10,80,0
2,106,1,../static/images/invador2.png,1,80,2,40,right,74,2,1126,0.486779506755394,0,0,1,2180,426,5.11737089201878,10.2347417840376,1.50109916048997,3.00219832097995,76.9978016790201,76.9978016790201,1,1,1,1,-1,-1,-1,1,1,-1,0,-0,-0,2,0,-1
2,107,1,../static/images/invador1.png,4,20,8,2.5,right,70,1,956,-0.347313314740555,0,0,1,2260,430,5.25581395348837,42.046511627907,2.3383802075384,18.7070416603072,1.29295833969283,1.29295833969283,0,-1,-1,-1,1,1,-1,-1,-1,1,1,1,1,2,0,1
2,108,1,../static/images/invador3.png,3,80,8,10,left,70,2,930,-0.474880452145818,0,0,1,2260,432,5.23148148148148,41.8518518518519,2.06358437831189,16.5086750264951,63.4913249735049,63.4913249735049,1,1,-1,0,-1,-1,1,1,-1,-1,0,-0,-0,4,80,-1
2,109,1,../static/images/invador1.png,4,20,8,2.5,left,74,1,930,-0.474880452145818,0,0,1,2340,442,5.29411764705882,42.3529411764706,2.27492259218318,18.1993807374654,1.8006192625346,1.8006192625346,0,-1,-1,-1,1,-1,-1,-1,1,1,1,1,-1,2,0,0
2,111,1,../static/images/invador1.png,4,20,8,2.5,right,70,1,990,-0.180494750441365,0,0,1,2340,446,5.24663677130045,41.9730941704036,1.77166185203681,14.1732948162944,5.82670518370556,5.82670518370556,0,-1,-1,-1,-1,1,-1,-1,1,-1,0,-0,0,2,0,0
2,113,1,../static/images/invador3.png,3,80,8,10,left,70,2,1000,-0.131430466823957,0,0,1,2360,458,5.1528384279476,41.2227074235808,1.11997097165695,8.95976777325563,71.0402322267444,71.0402322267444,1,1,-1,0,-1,-1,-1,-1,-1,1,1,-1,-1,2,0,-1
2,115,1,../static/images/invador4.png,2,20,2,10,left,74,1,1112,0.418089509691022,0,0,1,2460,478,5.14644351464435,10.2928870292887,1.23306393923735,2.4661278784747,17.5338721215253,17.5338721215253,0,-1,1,0,-1,-1,1,-1,-1,-1,1,-1,-1,10,80,-1
2,117,1,../static/images/invador1.png,4,20,8,2.5,right,70,1,998,-0.141243323547438,0,0,1,2460,482,5.10373443983402,40.8298755186722,0.960284253088617,7.68227402470894,12.3177259752911,12.3177259752911,0,-1,-1,-1,1,1,-1,1,-1,-1,0,0,0,2,0,1
2,118,1,../static/images/invador1.png,4,20,8,2.5,right,70,1,854,-0.847769007638125,0,0,1,2460,484,5.08264462809917,40.6611570247934,0.847436005925925,6.7794880474074,13.2205119525926,13.2205119525926,0,-1,-1,-1,-1,-1,1,1,-1,1,0,-0,-0,2,0,-1
2,119,1,../static/images/invador1.png,4,20,8,2.5,right,70,1,1190,0.80079092190681,0,0,1,2460,486,5.06172839506173,40.4938271604938,0.747849172606825,5.9827933808546,14.0172066191454,14.0172066191454,0,-1,-1,-1,-1,-1,-1,-1,1,1,0,-0,-0,2,0,-1
2,121,1,../static/images/invador1.png,4,20,8,2.5,left,74,1,1058,0.153142378157014,0,0,1,2540,492,5.16260162601626,41.3008130081301,1.69435554396173,13.5548443516938,6.44515564830616,6.44515564830616,0,-1,-1,-1,1,1,-1,-1,-1,-1,1,1,1,2,0,1
2,122,1,../static/images/invador1.png,4,20,8,2.5,right,70,1,844,-0.896833291255533,0,0,1,2540,494,5.1417004048583,41.1336032388664,1.49524257028598,11.9619405622878,8.03805943771216,8.03805943771216,0,-1,-1,-1,-1,-1,1,1,-1,-1,0,-0,-0,4,80,-1
2,158,-1,../static/images/invador1.png,4,20,8,2.5,left,70,2,1272,1.20311804756956,0,0,1,2840,662,4.29003021148036,34.3202416918429,0.582479772500005,4.65983818000004,15.34016182,15.34016182,1,-1,-1,-1,-1,-1,-1,-1,-1,-1,1,-1,-1,10,20,-1
2,159,-1,../static/images/invador2.png,1,80,2,40,left,70,2,1356,1.6152580299558,0,0,1,2860,672,4.25595238095238,8.51190476190476,0.603767614386297,1.20753522877259,78.7924647712274,78.7924647712274,1,1,1,1,-1,-1,-1,-1,-1,-1,1,-1,-1,10,20,-1
2,160,-1,../static/images/invador4.png,2,20,2,10,left,74,1,1300,1.34049804169831,0,0,1,2940,676,4.3491124260355,8.69822485207101,1.65132705678291,3.30265411356582,16.6973458864342,16.6973458864342,0,-1,1,0,1,1,-1,-1,-1,-1,1,1,1,10,20,1
2,162,-1,../static/images/invador1.png,4,20,8,2.5,right,70,1,1196,0.830229492077255,0,0,1,2940,680,4.32352941176471,34.5882352941176,1.2860187690742,10.2881501525936,9.71184984740639,9.71184984740639,0,-1,-1,-1,1,1,-1,1,1,1,0,0,0,2,0,1
2,163,-1,../static/images/invador2.png,1,80,2,40,right,74,2,1314,1.40918803876268,0,0,1,2940,682,4.3108504398827,8.6217008797654,1.13489167994244,2.26978335988489,77.7302166401151,77.7302166401151,1,1,1,1,-1,-1,1,1,-1,1,0,-0,-0,2,0,-1
2,164,-1,../static/images/invador2.png,1,80,2,40,right,74,2,1244,1.06573805344082,0,0,1,3020,686,4.40233236151604,8.80466472303207,2.05798885783838,4.11597771567677,75.8840222843232,75.8840222843232,1,1,1,1,1,1,-1,-1,1,1,1,1,1,2,0,1
2,165,-1,../static/images/invador2.png,1,80,2,40,right,74,2,1452,2.08627515268292,0,0,1,3100,690,4.49275362318841,8.98550724637681,2.76476978767502,5.52953957535004,74.47046042465,74.47046042465,1,1,1,1,1,1,1,1,-1,-1,1,1,1,4,80,1
2,166,-1,../static/images/invador3.png,3,80,8,10,right,74,2,1020,-0.0333018995891391,0,0,1,3180,694,4.5821325648415,36.657060518732,3.30592546959289,26.4474037567431,53.5525962432569,53.5525962432569,1,1,-1,0,1,1,1,1,1,1,1,1,1,4,80,1
2,169,-1,../static/images/invador1.png,4,20,8,2.5,left,74,1,1124,0.476966650031912,0,0,1,3260,708,4.6045197740113,36.8361581920904,2.28077436978798,18.2461949583038,1.75380504169616,1.75380504169616,0,-1,-1,-1,-1,1,-1,1,1,-1,0,-0,0,2,0,0
2,170,-1,../static/images/invador2.png,1,80,2,40,right,74,2,1110,0.40827665296754,0,0,1,3260,710,4.59154929577465,9.1830985915493,2.0127481171692,4.0254962343384,75.9745037656616,75.9745037656616,1,1,1,1,-1,-1,-1,1,-1,1,0,-0,-0,2,0,-1
2,171,-1,../static/images/invador3.png,3,80,8,10,left,70,2,1000,-0.131430466823957,0,0,1,3340,714,4.67787114845938,37.4229691876751,2.73013064726561,21.8410451781249,58.1589548218751,58.1589548218751,1,1,-1,0,1,1,-1,-1,-1,1,1,1,1,2,0,1
2,172,-1,../static/images/invador2.png,1,80,2,40,right,74,2,1234,1.01667376982341,0,0,1,3420,724,4.72375690607735,9.4475138121547,2.62566559585243,5.25133119170486,74.7486688082951,74.7486688082951,1,1,1,1,1,-1,1,1,-1,-1,1,1,-1,4,80,0
2,173,-1,../static/images/invador2.png,1,80,2,40,right,74,2,970,-0.278623317676183,0,0,1,3500,728,4.80769230769231,9.61538461538461,3.1994186007661,6.3988372015322,73.6011627984678,73.6011627984678,1,1,1,1,1,1,1,-1,1,1,1,1,1,10,80,1
2,175,-1,../static/images/invador2.png,1,80,2,40,left,70,2,916,-0.54357044921019,0,0,1,3660,736,4.97282608695652,9.94565217391304,3.97507624340776,7.95015248681552,72.0498475131845,72.0498475131845,1,1,1,1,1,1,1,1,1,1,1,1,1,4,80,1
2,177,-1,../static/images/invador4.png,2,20,2,10,right,70,1,1096,0.339586655903168,0,0,1,3740,750,4.98666666666667,9.97333333333333,2.26539512883512,4.53079025767023,15.4692097423298,15.4692097423298,0,-1,1,0,1,-1,1,1,1,1,NaN,NaN,NaN,4,80,0
2,178,-1,../static/images/invador1.png,4,20,8,2.5,right,70,1,1104,0.378838082797095,0,0,1,3740,752,4.97340425531915,39.7872340425532,1.99917617481427,15.9934093985141,4.00659060148586,4.00659060148586,0,-1,-1,-1,-1,1,1,-1,1,1,0,-0,0,10,0,0
2,180,-1,../static/images/invador2.png,1,80,2,40,left,70,2,972,-0.268810460952701,0,0,1,3820,758,5.03957783641161,10.0791556728232,2.53985887143113,5.07971774286226,74.9202822571377,74.9202822571377,1,1,1,1,1,1,-1,-1,-1,1,1,1,1,2,0,1
2,181,-1,../static/images/invador2.png,1,80,2,40,right,74,2,1010,-0.0823661832065479,0,0,1,3900,762,5.11811023622047,10.2362204724409,3.133719606202,6.267439212404,73.732560787596,73.732560787596,1,1,1,1,1,1,1,1,-1,-1,1,1,1,4,80,1
2,182,-1,../static/images/invador2.png,1,80,2,40,left,70,2,1076,0.24145808866835,0,0,1,3980,766,5.19582245430809,10.3916449086162,3.58841652475561,7.17683304951123,72.8231669504888,72.8231669504888,1,1,1,1,1,1,1,1,1,1,1,1,1,4,80,1
2,183,-1,../static/images/invador2.png,1,80,2,40,right,74,2,986,-0.200120463888329,0,0,1,4060,770,5.27272727272727,10.5454545454545,3.93656092231698,7.87312184463396,72.126878155366,72.126878155366,1,1,1,1,1,1,1,1,1,1,1,1,1,4,80,1
2,184,-1,../static/images/invador2.png,1,80,2,40,left,70,2,980,-0.229559034058774,0,0,1,4140,774,5.34883720930233,10.6976744186047,4.20312204601871,8.40624409203742,71.5937559079626,71.5937559079626,1,1,1,1,1,1,1,1,1,1,1,1,1,4,80,1
2,185,-1,../static/images/invador2.png,1,80,2,40,left,70,2,1012,-0.0725533264830661,0,0,1,4220,778,5.42416452442159,10.8483290488432,4.40721791304068,8.81443582608136,71.1855641739186,71.1855641739186,1,1,1,1,1,1,1,1,1,1,1,1,1,4,80,1
2,186,-1,../static/images/invador3.png,3,80,8,10,left,70,2,970,-0.278623317676183,0,0,1,4300,782,5.49872122762148,43.9897698209719,4.5634864729754,36.5078917838032,43.4921082161968,43.4921082161968,1,1,-1,0,1,1,1,1,1,1,1,1,1,4,80,1
2,188,-1,../static/images/invador4.png,2,20,2,10,right,70,1,1072,0.221832375221386,0,0,1,4400,802,5.48628428927681,10.9725685785536,2.18656124997238,4.37312249994476,15.6268775000552,15.6268775000552,0,-1,1,0,-1,-1,1,-1,1,1,1,-1,-1,10,80,-1
2,189,-1,../static/images/invador1.png,4,20,8,2.5,right,70,1,1044,0.0844523810926419,0,0,1,4400,804,5.4726368159204,43.7810945273632,1.92960649560708,15.4368519648567,4.56314803514334,4.56314803514334,0,-1,-1,-1,-1,1,-1,-1,1,-1,0,-0,0,10,20,0
2,190,-1,../static/images/invador4.png,2,20,2,10,left,74,1,946,-0.396377598357964,0,0,1,4400,806,5.4590570719603,10.9181141439206,1.70284789778291,3.40569579556583,16.5943042044342,16.5943042044342,0,-1,1,0,-1,-1,-1,1,-1,-1,0,-0,-0,2,0,-1
2,191,-1,../static/images/invador2.png,1,80,2,40,right,74,2,1248,1.08536376688778,0,0,1,4400,808,5.44554455445545,10.8910891089109,1.50273694122874,3.00547388245747,76.9945261175425,76.9945261175425,1,1,1,1,-1,1,-1,-1,-1,1,0,-0,0,2,0,0
2,193,-1,../static/images/invador2.png,1,80,2,40,right,74,2,980,-0.229559034058774,0,0,1,4560,816,5.58823529411765,11.1764705882353,2.98041507181008,5.96083014362016,74.0391698563798,74.0391698563798,1,1,1,1,1,1,1,1,-1,1,1,1,1,4,80,1
2,194,-1,../static/images/invador2.png,1,80,2,40,left,70,2,830,-0.965523288319906,0,0,1,4640,820,5.65853658536585,11.3170731707317,3.47103698556921,6.94207397113843,73.0579260288616,73.0579260288616,1,1,1,1,1,1,1,1,1,1,1,1,1,4,80,1
2,198,-1,../static/images/invador4.png,2,20,2,10,right,70,1,884,-0.700576156785898,0,0,1,4800,832,5.76923076923077,11.5384615384615,3.34302388758095,6.6860477751619,13.3139522248381,13.3139522248381,0,-1,1,0,1,1,1,1,1,-1,0,0,0,4,80,1
2,200,-1,../static/images/invador2.png,1,80,2,40,right,74,2,1028,0.00594952730478791,0,0,1,4820,844,5.71090047393365,11.4218009478673,1.84966715798158,3.69933431596316,76.3006656840368,76.3006656840368,1,1,1,1,-1,-1,-1,1,1,1,1,-1,-1,2,0,-1
2,201,-1,../static/images/invador2.png,1,80,2,40,right,74,2,888,-0.680950443338935,0,0,1,4900,848,5.77830188679245,11.5566037735849,2.60526566583863,5.21053133167726,74.7894686683227,74.7894686683227,1,1,1,1,1,1,-1,-1,-1,1,1,1,1,10,20,1
2,202,-1,../static/images/invador3.png,3,80,8,10,left,70,2,902,-0.612260446274562,0,0,1,4980,852,5.84507042253521,46.7605633802817,3.1837991385372,25.4703931082976,54.5296068917024,54.5296068917024,1,1,-1,0,1,1,1,1,-1,-1,1,1,1,4,80,1
2,203,-1,../static/images/invador2.png,1,80,2,40,left,70,2,930,-0.474880452145818,0,0,1,5060,862,5.87006960556845,11.7401392111369,2.86439028265995,5.72878056531989,74.2712194346801,74.2712194346801,1,1,1,1,1,-1,1,1,1,1,1,1,-1,4,80,0
2,204,-1,../static/images/invador2.png,1,80,2,40,left,70,2,930,-0.474880452145818,0,0,1,5140,866,5.93533487297921,11.8706697459584,3.38220115081285,6.76440230162569,73.2355976983743,73.2355976983743,1,1,1,1,1,1,1,-1,1,1,1,1,1,10,80,1
2,206,-1,../static/images/invador2.png,1,80,2,40,right,74,2,856,-0.837956150914643,0,0,1,5240,880,5.95454545454545,11.9090909090909,2.28563315010008,4.57126630020017,75.4287336997998,75.4287336997998,1,1,1,1,-1,-1,1,1,1,1,1,-1,-1,4,80,-1
2,207,-1,../static/images/invador2.png,1,80,2,40,left,70,2,928,-0.4846933088693,0,0,1,5320,884,6.01809954751131,12.0361990950226,2.93906849469031,5.87813698938062,74.1218630106194,74.1218630106194,1,1,1,1,1,1,-1,-1,1,1,1,1,1,10,20,1
2,209,-1,../static/images/invador4.png,2,20,2,10,right,70,1,1004,-0.111804753376993,0,0,1,5400,890,6.06741573033708,12.1348314606742,3.0351991957981,6.07039839159619,13.9296016084038,13.9296016084038,0,-1,1,0,1,-1,1,1,1,1,0,0,-0,4,80,0
2,213,-1,../static/images/invador2.png,1,80,2,40,right,74,2,1060,0.162955234880496,0,0,1,5560,902,6.16407982261641,12.3281596452328,3.37818728213605,6.7563745642721,73.2436254357279,73.2436254357279,1,1,1,1,1,1,-1,-1,1,1,1,1,1,2,0,1
2,214,-1,../static/images/invador3.png,3,80,8,10,left,70,2,974,-0.258997604229219,0,0,1,5640,906,6.22516556291391,49.8013245033113,3.77559626644382,30.2047701315505,49.7952298684495,49.7952298684495,1,1,-1,0,1,1,1,1,-1,-1,1,1,1,4,80,1
2,216,-1,../static/images/invador4.png,2,20,2,10,right,70,1,948,-0.386564741634482,0,0,1,5720,918,6.23093681917211,12.4618736383442,2.8025940227142,5.6051880454284,14.3948119545716,14.3948119545716,0,-1,1,0,1,1,1,-1,1,1,0,0,0,10,80,1
2,219,-1,../static/images/invador2.png,1,80,2,40,left,70,2,1044,0.0844523810926419,0,0,1,5800,932,6.22317596566524,12.4463519313305,2.19781926079822,4.39563852159645,75.6043614784035,75.6043614784035,1,1,1,1,-1,1,1,-1,-1,1,0,-0,0,10,80,0
2,220,-1,../static/images/invador1.png,4,20,8,2.5,right,70,1,1004,-0.111804753376993,0,0,1,5880,936,6.28205128205128,50.2564102564103,2.87183268916569,22.9746615133255,-2.97466151332551,2.97466151332551,0,-1,-1,-1,1,1,-1,1,1,-1,1,1,1,2,0,1
2,223,-1,../static/images/invador2.png,1,80,2,40,left,70,2,1286,1.27180804463393,0,0,1,5880,942,6.24203821656051,12.484076433121,1.97369685897985,3.9473937179597,76.0526062820403,76.0526062820403,1,1,1,1,1,1,1,1,-1,-1,0,0,0,2,0,1
2,225,-1,../static/images/invador2.png,1,80,2,40,left,70,2,1072,0.221832375221386,0,0,1,5980,956,6.25523012552301,12.510460251046,1.71814827696856,3.43629655393713,76.5637034460629,76.5637034460629,1,1,1,1,-1,-1,1,1,1,1,1,-1,-1,4,80,-1
2,226,-1,../static/images/invador4.png,2,20,2,10,left,74,1,1074,0.231645231944868,0,0,1,6060,960,6.3125,12.625,2.50456658535251,5.00913317070502,14.990866829295,14.990866829295,0,-1,1,0,1,1,-1,-1,1,1,1,1,1,10,20,1
2,227,-1,../static/images/invador2.png,1,80,2,40,left,70,2,990,-0.180494750441365,0,0,1,6060,962,6.2993762993763,12.5987525987526,2.21024128724393,4.42048257448787,75.5795174255121,75.5795174255121,1,1,1,1,-1,1,1,1,-1,-1,0,-0,0,4,80,0
2,228,-1,../static/images/invador2.png,1,80,2,40,right,74,2,960,-0.327687601293592,0,0,1,6140,966,6.35610766045549,12.712215320911,2.88134376948528,5.76268753897056,74.2373124610294,74.2373124610294,1,1,1,1,1,1,-1,1,1,1,1,1,1,2,0,1
2,232,-1,../static/images/invador2.png,1,80,2,40,right,74,2,942,-0.416003311804927,0,0,1,6460,988,6.53846153846154,13.0769230769231,3.62587812841175,7.25175625682351,72.7482437431765,72.7482437431765,1,1,1,1,1,1,1,-1,1,1,1,1,1,10,80,1
2,233,-1,../static/images/invador3.png,3,80,8,10,left,70,2,854,-0.847769007638125,0,0,1,6540,992,6.59274193548387,52.741935483871,3.96524386892246,31.7219509513797,48.2780490486203,48.2780490486203,1,1,-1,0,1,1,1,1,1,-1,1,1,1,4,80,1
2,234,-1,../static/images/invador4.png,2,20,2,10,right,70,1,926,-0.494506165592781,0,0,1,6620,1002,6.60678642714571,13.2135728542914,3.27559395253732,6.55118790507463,13.4488120949254,13.4488120949254,0,-1,1,0,1,-1,1,1,1,1,1,1,-1,4,80,0
2,235,-1,../static/images/invador2.png,1,80,2,40,right,74,2,1028,0.00594952730478791,0,0,1,6620,1004,6.59362549800797,13.1872509960159,2.89066101755308,5.78132203510615,74.2186779648938,74.2186779648938,1,1,1,1,-1,1,1,-1,1,1,0,-0,0,10,80,0
2,236,-1,../static/images/invador1.png,4,20,8,2.5,right,70,1,918,-0.533757592486709,0,0,1,6700,1008,6.6468253968254,53.1746031746032,3.40231566841714,27.2185253473371,-7.21852534733711,7.21852534733711,0,-1,-1,-1,1,1,-1,1,1,-1,1,1,1,2,0,1
2,237,-1,../static/images/invador2.png,1,80,2,40,right,74,2,964,-0.308061887846628,0,0,1,6700,1010,6.63366336633663,13.2673267326733,3.00249097251056,6.00498194502111,73.9950180549789,73.9950180549789,1,1,1,1,-1,-1,1,1,-1,1,0,-0,-0,4,80,-1
2,238,-1,../static/images/invador4.png,2,20,2,10,right,70,1,856,-0.837956150914643,0,0,1,6780,1014,6.68639053254438,13.3727810650888,3.48793967577094,6.97587935154188,13.0241206484581,13.0241206484581,0,-1,1,0,1,1,-1,-1,1,1,1,1,1,2,0,1
2,239,-1,../static/images/invador1.png,4,20,8,2.5,right,70,1,1068,0.202206661774423,0,0,1,6780,1016,6.67322834645669,53.3858267716535,3.07805283512561,24.6244226810048,-4.62442268100484,4.62442268100484,0,-1,-1,-1,-1,1,1,1,-1,-1,0,-0,0,4,80,0
2,240,-1,../static/images/invador2.png,1,80,2,40,left,70,2,940,-0.425816168528409,0,0,1,6780,1018,6.66011787819253,13.3202357563851,2.71633403571713,5.43266807143426,74.5673319285657,74.5673319285657,1,1,1,1,-1,-1,-1,1,1,1,0,-0,-0,2,0,-1
2,241,-1,../static/images/invador2.png,1,80,2,40,left,70,2,1052,0.123703807986569,0,0,1,6860,1022,6.71232876712329,13.4246575342466,3.26884002872505,6.53768005745009,73.4623199425499,73.4623199425499,1,1,1,1,1,1,-1,-1,-1,1,1,1,1,2,0,1
2,242,-1,../static/images/invador3.png,3,80,8,10,right,74,2,892,-0.661324729891971,0,0,1,6940,1026,6.76413255360624,54.1130604288499,3.691873170662,29.534985365296,50.465014634704,50.465014634704,1,1,-1,0,1,1,1,1,-1,-1,1,1,1,4,80,1
2,244,-1,../static/images/invador2.png,1,80,2,40,left,70,2,916,-0.54357044921019,0,0,1,7020,1038,6.76300578034682,13.5260115606936,2.76371537965335,5.52743075930671,74.4725692406933,74.4725692406933,1,1,1,1,1,1,1,-1,1,1,0,0,0,10,80,1
2,246,-1,../static/images/invador2.png,1,80,2,40,left,70,2,888,-0.680950443338935,0,0,1,7100,1044,6.8007662835249,13.6015325670498,2.91671566432764,5.83343132865529,74.1665686713447,74.1665686713447,1,1,1,1,-1,-1,1,1,1,1,0,-0,-0,4,80,-1
2,247,-1,../static/images/invador3.png,3,80,8,10,left,70,2,912,-0.563196162657154,0,0,1,7180,1048,6.85114503816794,54.8091603053435,3.42226473544372,27.3781178835498,52.6218821164503,52.6218821164503,1,1,-1,0,1,1,-1,-1,1,1,1,1,1,2,0,1
2,249,-1,../static/images/invador2.png,1,80,2,40,right,74,2,146,-4.32152028775066,0,0,1,7340,1062,6.91148775894539,13.8229755178908,3.47827868482634,6.95655736965267,73.0434426303473,73.0434426303473,1,1,1,1,1,1,1,-1,1,1,1,1,1,10,80,1
2,250,-1,../static/images/invador2.png,1,80,2,40,right,74,2,988,-0.190307607164847,0,0,1,7420,1066,6.96060037523452,13.921200750469,3.85223250405354,7.70446500810707,72.2955349918929,72.2955349918929,1,1,1,1,1,1,1,1,1,-1,1,1,1,4,80,1
2,252,-1,../static/images/invador1.png,4,20,8,2.5,right,70,1,1064,0.182580948327459,0,0,1,7520,1074,7.00186219739292,56.0148975791434,3.4659976861849,27.7279814894792,-7.7279814894792,7.7279814894792,0,-1,-1,-1,-1,1,1,1,1,1,1,-1,1,4,80,0
2,253,-1,../static/images/invador4.png,2,20,2,10,left,74,1,898,-0.631886159721526,0,0,1,7520,1076,6.98884758364312,13.9776951672862,3.05868936857176,6.11737873714353,13.8826212628565,13.8826212628565,0,-1,1,0,-1,-1,-1,1,1,1,0,-0,-0,4,20,-1
2,254,-1,../static/images/invador3.png,3,80,8,10,right,74,2,1106,0.388650939520576,0,0,1,7520,1078,6.97588126159555,55.8070500927644,2.6992460758714,21.5939686069712,58.4060313930288,58.4060313930288,1,1,-1,0,-1,1,-1,-1,-1,1,0,-0,0,2,0,0
3,0,-1,../static/images/invador3.png,4,20,8,2.5,right,74,2,1327,1.65550767443655,0,0,-1,0,2,0,0,6.43028965146719,51.4423172117375,-31.4423172117375,31.4423172117375,1,-1,-1,-1,NaN,NaN,NaN,NaN,NaN,NaN,NaN,NaN,NaN,0,0,NaN
3,3,-1,../static/images/invador4.png,1,80,2,40,left,70,2,1016,0.299401311078638,0,0,-1,20,16,1.25,2.5,4.40887653887616,8.81775307775232,71.1822469222477,71.1822469222477,1,1,1,1,1,1,1,1,-1,-1,0,0,0,2,0,1
3,4,-1,../static/images/invador2.png,2,20,2,10,left,70,2,1453,2.20492697277448,0,0,-1,100,20,5,10,9.13855934768909,18.2771186953782,1.72288130462181,1.72288130462181,1,-1,1,0,1,1,1,1,1,1,1,1,1,2,0,1
3,5,-1,../static/images/invador4.png,1,80,2,40,right,74,2,1535,2.56248556375631,0,0,-1,120,24,5,10,8.50040563004622,17.0008112600924,62.9991887399076,62.9991887399076,1,1,1,1,-1,1,1,1,1,1,1,-1,1,4,80,0
3,8,-1,../static/images/invador3.png,4,20,8,2.5,left,74,1,1997,4.5770229909954,0,0,-1,280,40,7,56,11.9465345059442,95.5722760475533,-75.5722760475533,75.5722760475533,0,-1,-1,-1,-1,1,1,-1,1,1,0,-0,0,10,80,0
3,9,-1,../static/images/invador4.png,1,80,2,40,left,70,2,1395,1.95201967671416,0,0,-1,280,42,6.66666666666667,13.3333333333333,10.9429739607505,21.885947921501,58.114052078499,58.114052078499,1,1,1,1,-1,-1,-1,1,1,-1,0,-0,-0,2,0,-1
3,11,-1,../static/images/invador4.png,1,80,2,40,left,70,2,1297,1.52469355578466,0,0,-1,440,50,8.8,17.6,16.7057002342695,33.411400468539,46.588599531461,46.588599531461,1,1,1,1,1,1,1,1,-1,-1,1,1,1,4,80,1
3,12,-1,../static/images/invador1.png,3,80,8,10,left,74,1,1310,1.58137967386715,0,0,-1,520,54,9.62962962962963,77.037037037037,18.6496270805537,149.19701664443,-69.1970166444297,69.1970166444297,0,1,-1,0,1,1,1,1,1,1,1,1,1,4,80,1
3,13,-1,../static/images/invador4.png,1,80,2,40,left,70,2,992,0.194750016157128,0,0,-1,520,56,9.28571428571429,18.5714285714286,17.0829777805993,34.1659555611985,45.8340444388015,45.8340444388015,1,1,1,1,1,-1,1,1,1,1,0,0,-0,4,80,0
3,14,-1,../static/images/invador3.png,4,20,8,2.5,left,74,1,1205,1.12353025858554,0,0,-1,600,60,10,80,18.9414351430354,151.531481144283,-131.531481144283,131.531481144283,0,-1,-1,-1,1,1,1,-1,1,1,1,1,1,2,0,1
3,15,-1,../static/images/invador2.png,2,20,2,10,right,70,1,1520,2.49707850443037,0,0,-1,600,62,9.67741935483871,19.3548387096774,17.3502727043016,34.7005454086033,-14.7005454086033,14.7005454086033,0,-1,1,0,-1,-1,1,1,1,-1,0,-0,-0,4,80,-1
3,18,-1,../static/images/invador4.png,1,80,2,40,right,74,2,1079,0.574110960247605,0,0,-1,760,78,9.74358974358974,19.4871794871795,17.4664455538532,34.9328911077064,45.0671088922936,45.0671088922936,1,1,1,1,1,1,1,-1,-1,1,1,1,1,10,80,1
3,19,-1,../static/images/invador4.png,1,80,2,40,right,74,2,751,-0.856123403679711,0,0,-1,840,82,10.2439024390244,20.4878048780488,19.2380310815585,38.4760621631171,41.5239378368829,41.5239378368829,1,1,1,1,1,1,1,1,1,-1,1,1,1,4,80,1
3,20,-1,../static/images/invador4.png,1,80,2,40,right,74,2,1345,1.73399614562768,0,0,-1,920,86,10.6976744186047,21.3953488372093,20.6082767942689,41.2165535885379,38.7834464114621,38.7834464114621,1,1,1,1,1,1,1,1,1,1,1,1,1,4,80,1
3,21,-1,../static/images/invador3.png,4,20,8,2.5,left,74,1,1259,1.35899567215894,0,0,-1,1000,90,11.1111111111111,88.8888888888889,21.6681033077724,173.344826462179,-153.344826462179,153.344826462179,0,-1,-1,-1,1,1,1,1,1,1,1,1,1,4,80,1
3,22,-1,../static/images/invador4.png,1,80,2,40,right,74,2,1248,1.31103049531991,0,0,-1,1000,92,10.8695652173913,21.7391304347826,19.8478889553976,39.6957779107952,40.3042220892048,40.3042220892048,1,1,1,1,-1,-1,1,1,1,1,0,-0,-0,4,80,-1
3,24,-1,../static/images/invador1.png,3,80,8,10,right,74,2,1458,2.22672932588313,0,0,-1,1080,106,10.188679245283,81.5094339622642,13.593685809356,108.749486474848,-28.7494864748482,28.7494864748482,1,1,-1,0,1,1,1,1,-1,-1,NaN,NaN,NaN,4,80,1
3,26,-1,../static/images/invador4.png,1,80,2,40,left,70,2,1156,0.909867198120785,0,0,-1,1160,126,9.20634920634921,18.4126984126984,8.90508151326881,17.8101630265376,62.1898369734624,62.1898369734624,1,1,1,1,-1,1,1,-1,1,1,NaN,NaN,NaN,10,80,0
3,27,-1,../static/images/invador4.png,1,80,2,40,right,74,2,730,-0.947693286736033,0,0,-1,1240,130,9.53846153846154,19.0769230769231,12.6161817900041,25.2323635800083,54.7676364199917,54.7676364199917,1,1,1,1,1,1,-1,1,1,-1,1,1,1,10,0,1
3,28,-1,../static/images/invador2.png,2,20,2,10,left,70,2,1009,0.268878016726531,0,0,-1,1320,134,9.85074626865672,19.7014925373134,15.4865592931561,30.9731185863121,-10.9731185863121,10.9731185863121,1,-1,1,0,1,1,1,1,-1,1,1,1,1,4,80,1
3,29,-1,../static/images/invador3.png,4,20,8,2.5,right,70,1,1366,1.82556602868401,0,0,-1,1340,138,9.71014492753623,77.6811594202899,13.4103123624795,107.282498899836,-87.2824988998363,87.2824988998363,0,-1,-1,-1,-1,1,1,1,1,1,1,-1,1,4,80,0
3,30,-1,../static/images/invador4.png,1,80,2,40,right,74,2,1442,2.15696179593546,0,0,-1,1340,140,9.57142857142857,19.1428571428571,12.2837881492015,24.5675762984031,55.4324237015969,55.4324237015969,1,1,1,1,-1,-1,-1,1,1,1,0,-0,-0,4,20,-1
3,31,-1,../static/images/invador4.png,1,80,2,40,right,74,2,1040,0.404052606000149,0,0,-1,1420,144,9.86111111111111,19.7222222222222,15.2294670138847,30.4589340277693,49.5410659722307,49.5410659722307,1,1,1,1,1,1,-1,-1,-1,1,1,1,1,2,0,1
3,34,-1,../static/images/invador4.png,1,80,2,40,right,74,2,680,-1.16571681782251,0,0,-1,1660,162,10.2469135802469,20.4938271604938,18.2090176454855,36.418035290971,43.581964709029,43.581964709029,1,1,1,1,1,1,1,-1,1,1,1,1,1,10,80,1
3,35,-1,../static/images/invador1.png,3,80,8,10,left,74,1,1198,1.09300696423343,0,0,-1,1740,166,10.4819277108434,83.855421686747,19.8123788672144,158.499030937715,-78.4990309377153,78.4990309377153,0,1,-1,0,1,1,1,1,1,-1,1,1,1,4,80,1
3,36,-1,../static/images/invador3.png,4,20,8,2.5,left,74,1,860,-0.380832105911182,0,0,-1,1740,168,10.3571428571429,82.8571428571429,18.1480533904268,145.184427123414,-125.184427123414,125.184427123414,0,-1,-1,-1,1,-1,1,1,1,1,0,0,-0,4,80,0
3,38,-1,../static/images/invador4.png,1,80,2,40,left,70,2,809,-0.603216107619393,0,0,-1,1820,174,10.4597701149425,20.9195402298851,18.5860784499647,37.1721568999293,42.8278431000707,42.8278431000707,1,1,1,1,1,1,-1,-1,1,-1,1,1,1,2,0,1
3,39,-1,../static/images/invador4.png,1,80,2,40,right,74,2,841,-0.463681047724045,0,0,-1,1900,178,10.6741573033708,21.3483146067416,20.1040192891352,40.2080385782703,39.7919614217297,39.7919614217297,1,1,1,1,1,1,1,1,-1,-1,1,1,1,4,80,1
3,41,-1,../static/images/invador2.png,2,20,2,10,right,70,1,1360,1.79940320495363,0,0,-1,1980,184,10.7608695652174,21.5217391304348,19.4906308236262,38.9812616472524,-18.9812616472524,18.9812616472524,0,-1,1,0,1,1,1,1,1,1,0,0,0,4,80,1
3,42,-1,../static/images/invador4.png,1,80,2,40,right,74,2,1013,0.28631989921345,0,0,-1,1980,186,10.6451612903226,21.2903225806452,17.8533335734659,35.7066671469319,44.2933328530681,44.2933328530681,1,1,1,1,-1,1,1,1,1,1,0,-0,0,2,0,0
3,43,-1,../static/images/invador4.png,1,80,2,40,right,74,2,1444,2.16568273717892,0,0,-1,2060,190,10.8421052631579,21.6842105263158,19.5372724345064,39.0745448690128,40.9254551309872,40.9254551309872,1,1,1,1,1,1,-1,1,1,1,1,1,1,2,0,1
3,44,-1,../static/images/invador3.png,4,20,8,2.5,right,70,1,858,-0.389553047154641,0,0,-1,2140,194,11.0309278350515,88.2474226804124,20.8397271953532,166.717817562825,-146.717817562825,146.717817562825,0,-1,-1,-1,1,1,1,1,-1,1,1,1,1,4,80,1
3,45,-1,../static/images/invador2.png,2,20,2,10,left,74,1,1078,0.569750489625875,0,0,-1,2140,196,10.9183673469388,21.8367346938776,19.0891000176181,38.1782000352362,-18.1782000352362,18.1782000352362,0,-1,1,0,-1,-1,1,1,1,1,0,-0,-0,4,80,-1
3,48,-1,../static/images/invador1.png,3,80,8,10,right,70,1,831,-0.507285753941341,0,0,-1,2300,206,11.1650485436893,89.3203883495146,20.6196956491158,164.957565192927,-84.9575651929266,84.9575651929266,0,1,-1,0,1,1,1,1,-1,1,1,1,1,4,80,1
3,50,-1,../static/images/invador2.png,2,20,2,10,left,74,1,961,0.0595754268835094,0,0,-1,2300,210,10.952380952381,21.9047619047619,17.3009160446311,34.6018320892622,-14.6018320892622,14.6018320892622,0,-1,1,0,1,1,1,-1,1,1,0,0,0,2,0,1
3,51,-1,../static/images/invador4.png,1,80,2,40,right,74,2,806,-0.616297519484582,0,0,-1,2300,212,10.8490566037736,21.6981132075472,15.8475643023781,31.6951286047561,48.3048713952439,48.3048713952439,1,1,1,1,-1,1,1,1,1,-1,0,-0,0,2,0,0
3,52,-1,../static/images/invador3.png,4,20,8,2.5,right,70,1,883,-0.280541281611401,0,0,-1,2380,216,11.0185185185185,88.1481481481482,17.9858956020515,143.887164816412,-123.887164816412,123.887164816412,0,-1,-1,-1,1,1,-1,1,1,1,1,1,1,2,0,1
3,53,-1,../static/images/invador1.png,3,80,8,10,left,74,1,676,-1.18315870030943,0,0,-1,2380,218,10.9174311926606,87.3394495412844,16.4750026157039,131.800020925631,-51.8000209256309,51.8000209256309,0,1,-1,0,-1,-1,1,1,-1,1,0,-0,-0,4,80,-1
3,55,-1,../static/images/invador4.png,1,80,2,40,right,74,2,1101,0.670041313925656,0,0,-1,2460,224,10.9821428571429,21.9642857142857,17.4007495494505,34.801499098901,45.198500901099,45.198500901099,1,1,1,1,1,1,1,-1,-1,-1,1,1,1,2,0,1
3,56,-1,../static/images/invador3.png,4,20,8,2.5,left,74,1,835,-0.489843871454423,0,0,-1,2540,228,11.140350877193,89.1228070175439,19.1872180290882,153.497744232706,-133.497744232706,133.497744232706,0,-1,-1,-1,1,1,1,1,1,-1,1,1,1,4,80,1
3,57,-1,../static/images/invador4.png,1,80,2,40,left,70,2,965,0.0770173093704279,0,0,-1,2540,230,11.0434782608696,22.0869565217391,17.575408765369,35.1508175307381,44.8491824692619,44.8491824692619,1,1,1,1,-1,-1,1,1,1,1,0,-0,-0,4,80,-1
3,59,-1,../static/images/invador4.png,1,80,2,40,right,74,2,725,-0.969495639844681,0,0,-1,2640,238,11.0924369747899,22.1848739495798,16.3771012376298,32.7542024752596,47.2457975247404,47.2457975247404,1,1,1,1,-1,1,1,1,-1,-1,1,-1,1,4,80,0
3,60,-1,../static/images/invador4.png,1,80,2,40,right,74,2,876,-0.311064575963508,0,0,-1,2720,242,11.2396694214876,22.4793388429752,18.395469796412,36.7909395928239,43.2090604071761,43.2090604071761,1,1,1,1,1,1,-1,1,1,1,1,1,1,4,20,1
3,62,-1,../static/images/invador4.png,1,80,2,40,right,74,2,960,0.0552149562617798,0,0,-1,2800,248,11.2903225806452,22.5806451612903,18.2801516664595,36.5603033329191,43.4396966670809,43.4396966670809,1,1,1,1,1,-1,1,1,1,1,0,0,-0,4,80,0
3,63,-1,../static/images/invador1.png,3,80,8,10,right,70,1,886,-0.267459869746212,0,0,-1,2880,252,11.4285714285714,91.4285714285714,19.8673979931574,158.939183945259,-78.939183945259,78.939183945259,0,1,-1,0,1,1,1,-1,1,1,1,1,1,2,0,1
3,64,-1,../static/images/invador2.png,2,20,2,10,right,70,1,1106,0.691843667034304,0,0,-1,2880,254,11.3385826771654,22.6771653543307,18.1984506719345,36.3969013438689,-16.3969013438689,16.3969013438689,0,-1,1,0,1,-1,1,1,1,-1,0,0,-0,4,80,0
3,65,-1,../static/images/invador4.png,1,80,2,40,right,74,2,905,-0.184610927933349,0,0,-1,2880,256,11.25,22.5,16.6697021408086,33.3394042816172,46.6605957183828,46.6605957183828,1,1,1,1,-1,1,1,-1,1,1,0,-0,0,2,0,0
3,66,-1,../static/images/invador3.png,4,20,8,2.5,left,74,1,1218,1.18021637666802,0,0,-1,2960,260,11.3846153846154,91.0769230769231,18.6217840933204,148.974272746564,-128.974272746564,128.974272746564,0,-1,-1,-1,1,1,-1,1,1,-1,1,1,1,2,0,1
3,68,-1,../static/images/invador4.png,1,80,2,40,right,74,2,848,-0.433157753371938,0,0,-1,3040,266,11.4285714285714,22.8571428571429,18.921708845458,37.843417690916,42.156582309084,42.156582309084,1,1,1,1,1,1,-1,-1,1,1,1,1,1,2,0,1
3,69,-1,../static/images/invador4.png,1,80,2,40,left,70,2,902,-0.197692339798538,0,0,-1,3120,270,11.5555555555556,23.1111111111111,20.3636150598659,40.7272301197318,39.2727698802682,39.2727698802682,1,1,1,1,1,1,1,1,-1,-1,1,1,1,4,80,1
3,70,-1,../static/images/invador3.png,4,20,8,2.5,right,70,1,1015,0.295040840456909,0,0,-1,3200,274,11.6788321167883,93.4306569343066,21.4788679096575,171.83094327726,-151.83094327726,151.83094327726,0,-1,-1,-1,1,1,1,1,1,1,1,1,1,4,80,1
3,71,-1,../static/images/invador4.png,1,80,2,40,right,74,2,873,-0.324145987828697,0,0,-1,3200,276,11.5942028985507,23.1884057971014,19.6745501488178,39.3491002976357,40.6508997023643,40.6508997023643,1,1,1,1,-1,-1,1,1,1,1,0,-0,-0,4,80,-1
3,72,-1,../static/images/invador2.png,2,20,2,10,right,70,1,1047,0.434575900352257,0,0,-1,3280,280,11.7142857142857,23.4285714285714,20.9459056420295,41.8918112840589,-21.8918112840589,21.8918112840589,0,-1,1,0,1,1,-1,-1,1,1,1,1,1,2,0,1
3,73,-1,../static/images/invador4.png,1,80,2,40,right,74,2,988,0.177308133670209,0,0,-1,3280,282,11.6312056737589,23.2624113475177,19.1863590157479,38.3727180314958,41.6272819685042,41.6272819685042,1,1,1,1,-1,1,1,1,-1,-1,0,-0,0,4,80,0
3,74,-1,../static/images/invador1.png,3,80,8,10,right,70,1,785,-0.707867402540904,0,0,-1,3360,286,11.7482517482517,93.986013986014,20.5683106591111,164.546485272889,-84.5464852728888,84.5464852728888,0,1,-1,0,1,1,-1,1,1,1,1,1,1,2,0,1
3,76,-1,../static/images/invador4.png,1,80,2,40,right,74,2,840,-0.468041518345775,0,0,-1,3440,292,11.7808219178082,23.5616438356164,20.3007908368174,40.6015816736348,39.3984183263652,39.3984183263652,1,1,1,1,1,1,1,-1,1,1,1,1,1,2,0,1
3,78,-1,../static/images/invador1.png,3,80,8,10,left,74,1,847,-0.437518223993667,0,0,-1,3540,306,11.5686274509804,92.5490196078431,14.1713852439598,113.371081951679,-33.3710819516786,33.3710819516786,0,1,-1,0,-1,-1,1,1,1,1,1,-1,-1,4,80,-1
3,79,-1,../static/images/invador4.png,1,80,2,40,left,70,2,806,-0.616297519484582,0,0,-1,3540,308,11.4935064935065,22.987012987013,12.9809276184031,25.9618552368062,54.0381447631938,54.0381447631938,1,1,1,1,1,-1,-1,-1,1,1,0,0,-0,10,20,0
3,81,-1,../static/images/invador2.png,2,20,2,10,left,74,1,1123,0.765971667603708,0,0,-1,3700,316,11.7088607594937,23.4177215189873,17.9248777935202,35.8497555870403,-15.8497555870403,15.8497555870403,0,-1,1,0,1,1,1,1,1,-1,1,1,1,4,80,1
3,82,-1,../static/images/invador4.png,1,80,2,40,right,74,2,1090,0.62207613708663,0,0,-1,3700,318,11.6352201257862,23.2704402515723,16.4191105668785,32.8382211337569,47.1617788662431,47.1617788662431,1,1,1,1,-1,1,1,1,1,1,0,-0,0,4,80,0
3,86,-1,../static/images/invador1.png,3,80,8,10,left,70,2,0,-4.13083684059866,0,0,-1,3780,328,11.5243902439024,92.1951219512195,14.1630759821211,113.304607856969,-33.3046078569691,33.3046078569691,1,1,-1,0,1,1,1,1,1,1,0,0,0,2,0,1
3,88,-1,../static/images/invador4.png,1,80,2,40,left,70,2,903,-0.193331869176809,0,0,-1,3860,348,11.0919540229885,22.183908045977,9.12335133166579,18.2467026633316,61.7532973366684,61.7532973366684,1,1,1,1,-1,1,1,-1,1,1,NaN,NaN,NaN,10,80,0
3,89,-1,../static/images/invador3.png,4,20,8,2.5,left,74,1,1083,0.591552842734523,0,0,-1,3940,352,11.1931818181818,89.5454545454545,12.7850041687125,102.2800333497,-82.2800333497001,82.2800333497001,0,-1,-1,-1,1,1,-1,1,1,-1,1,1,1,10,0,1
3,90,-1,../static/images/invador4.png,1,80,2,40,left,70,2,1079,0.574110960247605,0,0,-1,3940,354,11.1299435028249,22.2598870056497,11.7110085470138,23.4220170940276,56.5779829059724,56.5779829059724,1,1,1,1,-1,-1,1,1,-1,1,0,-0,-0,4,80,-1
3,92,-1,../static/images/invador4.png,1,80,2,40,left,70,2,958,0.0464940150183206,0,0,-1,4020,360,11.1666666666667,22.3333333333333,13.5443210371765,27.0886420743531,52.9113579256469,52.9113579256469,1,1,1,1,-1,-1,1,1,-1,-1,0,-0,-0,4,80,-1
3,93,-1,../static/images/invador4.png,1,80,2,40,left,70,2,1042,0.412773547243609,0,0,-1,4100,364,11.2637362637363,22.5274725274725,16.2044353450583,32.4088706901166,47.5911293098834,47.5911293098834,1,1,1,1,1,1,-1,-1,1,1,1,1,1,2,0,1
3,94,-1,../static/images/invador4.png,1,80,2,40,left,70,2,910,-0.162808574824701,0,0,-1,4180,368,11.3586956521739,22.7173913043478,18.2619201058509,36.5238402117018,43.4761597882982,43.4761597882982,1,1,1,1,1,1,1,1,-1,-1,1,1,1,4,80,1
3,95,-1,../static/images/invador4.png,1,80,2,40,right,74,2,675,-1.18751917093116,0,0,-1,4260,372,11.4516129032258,22.9032258064516,19.8532966599904,39.7065933199807,40.2934066800193,40.2934066800193,1,1,1,1,1,1,1,1,1,1,1,1,1,4,80,1
3,96,-1,../static/images/invador2.png,2,20,2,10,right,70,1,1225,1.21073967102013,0,0,-1,4340,376,11.5425531914894,23.0851063829787,21.0841584312772,42.1683168625543,-22.1683168625543,22.1683168625543,0,-1,1,0,1,1,1,1,1,1,1,1,1,4,80,1
3,99,-1,../static/images/invador2.png,2,20,2,10,right,74,2,858,-0.389553047154641,0,0,-1,4420,390,11.3333333333333,22.6666666666667,15.7634858422736,31.5269716845471,-11.5269716845471,11.5269716845471,1,-1,1,0,1,1,1,-1,-1,1,0,0,0,10,80,1
3,100,-1,../static/images/invador4.png,1,80,2,40,right,74,2,889,-0.254378457881023,0,0,-1,4440,394,11.2690355329949,22.5380710659898,13.6245032162259,27.2490064324518,52.7509935675482,52.7509935675482,1,1,1,1,-1,1,1,1,1,-1,1,-1,1,2,0,0
3,101,-1,../static/images/invador4.png,1,80,2,40,left,70,2,1369,1.83864744054919,0,0,-1,4520,398,11.356783919598,22.713567839196,16.2664528346798,32.5329056693597,47.4670943306403,47.4670943306403,1,1,1,1,1,1,-1,1,1,1,1,1,1,4,20,1
3,102,-1,../static/images/invador3.png,4,20,8,2.5,left,74,1,940,-0.0319944561728126,0,0,-1,4600,402,11.4427860696517,91.5422885572139,18.3098879843067,146.479103874454,-126.479103874454,126.479103874454,0,-1,-1,-1,1,1,1,1,-1,1,1,1,1,4,80,1
3,103,-1,../static/images/invador1.png,3,80,8,10,left,74,1,860,-0.380832105911182,0,0,-1,4600,404,11.3861386138614,91.0891089108911,16.771778237181,134.174225897448,-54.1742258974483,54.1742258974483,0,1,-1,0,-1,-1,1,1,1,1,0,-0,-0,4,80,-1
3,104,-1,../static/images/invador4.png,1,80,2,40,left,70,2,922,-0.110482927363946,0,0,-1,4600,406,11.3300492610837,22.6600985221675,15.3628763582974,30.7257527165949,49.2742472834051,49.2742472834051,1,1,1,1,1,-1,-1,-1,1,1,0,0,-0,2,0,0
3,105,-1,../static/images/invador2.png,2,20,2,10,left,74,1,913,-0.149727162959512,0,0,-1,4680,410,11.4146341463415,22.8292682926829,17.6110101861387,35.2220203722775,-15.2220203722775,15.2220203722775,0,-1,1,0,1,1,1,-1,-1,-1,1,1,1,2,0,1
3,106,-1,../static/images/invador4.png,1,80,2,40,left,70,2,923,-0.106122456742216,0,0,-1,4680,412,11.3592233009709,22.7184466019417,16.1316091954147,32.2632183908294,47.7367816091706,47.7367816091706,1,1,1,1,-1,1,1,1,1,-1,0,-0,0,4,80,0
3,107,-1,../static/images/invador3.png,4,20,8,2.5,left,74,1,779,-0.734030226271281,0,0,-1,4760,416,11.4423076923077,91.5384615384615,18.2055921906802,145.644737525441,-125.644737525441,125.644737525441,0,-1,-1,-1,1,1,-1,1,1,1,1,1,1,2,0,1
3,108,-1,../static/images/invador1.png,3,80,8,10,left,74,1,617,-1.44042646699148,0,0,-1,4760,418,11.3875598086124,91.1004784688995,16.6762437411058,133.409949928846,-53.4099499288462,53.4099499288462,0,1,-1,0,-1,-1,1,1,-1,1,0,-0,-0,4,80,-1
3,109,-1,../static/images/invador4.png,1,80,2,40,left,70,2,862,-0.372111164667723,0,0,-1,4760,420,11.3333333333333,22.6666666666667,15.2753671729027,30.5507343458054,49.4492656541946,49.4492656541946,1,1,1,1,1,-1,-1,-1,1,1,0,0,-0,2,0,0
3,111,-1,../static/images/invador4.png,1,80,2,40,right,74,2,1017,0.303761781700368,0,0,-1,4920,428,11.4953271028037,22.9906542056075,19.2974944893901,38.5949889787801,41.4050110212199,41.4050110212199,1,1,1,1,1,1,1,1,1,-1,1,1,1,4,80,1
3,112,-1,../static/images/invador4.png,1,80,2,40,left,70,2,1117,0.73980884387333,0,0,-1,5000,432,11.5740740740741,23.1481481481481,20.6542691995861,41.3085383991723,38.6914616008277,38.6914616008277,1,1,1,1,1,1,1,1,1,1,1,1,1,4,80,1
3,113,-1,../static/images/invador4.png,1,80,2,40,right,74,2,945,-0.0101921030641645,0,0,-1,5080,436,11.651376146789,23.302752293578,21.7036764682084,43.4073529364168,36.5926470635832,36.5926470635832,1,1,1,1,1,1,1,1,1,1,1,1,1,4,80,1
3,114,-1,../static/images/invador3.png,4,20,8,2.5,left,74,1,947,-0.00147116182070526,0,0,-1,5160,440,11.7272727272727,93.8181818181818,22.5153481533905,180.122785227124,-160.122785227124,160.122785227124,0,-1,-1,-1,1,1,1,1,1,1,1,1,1,4,80,1
