subj,trial_index_actual,block,stimulus,stim_rank,reward_percent,delay_s,profitability,stim_left_right,key_press,approach_avoid,rt,rt_z,force_trial,missed,order_condition,reward_sum,delay_sum,Q_arithmetic,opp_cost_arithmetic,Q_estimate,opp_cost_estimate
1,0,0,../static/images/invador1.png,4,20,8,2.5,right,74,2,1195.0,1.09567386648762,1,0,1,0.0,2.0,0.0,0.0,6.525426010756488,52.2034080860519
1,1,0,../static/images/invador3.png,1,80,2,40.0,right,74,2,718.0,-1.04463596508796,0,0,1,20.0,12.0,1.6666666666666667,3.3333333333333335,5.2280486066643945,10.456097213328789
1,2,0,../static/images/invador2.png,2,20,2,10.0,left,70,0,NaN,NaN,2,1,1,100.0,16.0,6.25,12.5,7.9912611805039315,15.982522361007863
1,3,0,../static/images/invador4.png,3,80,8,10.0,left,70,2,933.0,-0.0799260829312511,0,0,1,100.0,26.0,3.8461538461538463,30.76923076923077,5.545926544940055,44.36741235952044
1,4,0,../static/images/invador3.png,1,80,2,40.0,left,70,2,750.0,-0.901051238441381,1,0,1,180.0,36.0,5.0,10.0,7.356032156134351,14.712064312268701
1,5,0,../static/images/invador3.png,1,80,2,40.0,right,74,2,628.0,-1.44846800878147,0,0,1,260.0,40.0,6.5,13.0,9.738514379017973,19.477028758035946
1,6,0,../static/images/invador3.png,1,80,2,40.0,left,74,1,657.0,-1.31834435025801,2,0,1,340.0,44.0,7.7272727272727275,15.454545454545455,11.694732360765592,23.389464721531183
1,7,0,../static/images/invador3.png,1,80,2,40.0,right,74,2,884.0,-0.299790195608827,0,0,1,340.0,46.0,7.391304347826087,14.782608695652174,10.870813495124704,21.741626990249408
1,8,0,../static/images/invador4.png,3,80,8,10.0,right,74,2,492.0,-2.05870309702943,0,0,1,420.0,50.0,8.4,67.2,12.624445023621886,100.99556018897509
1,9,0,../static/images/invador3.png,1,80,2,40.0,left,70,2,596.0,-1.59205273542805,0,0,1,500.0,60.0,8.333333333333334,16.666666666666668,12.024186651426172,24.048373302852344
1,10,0,../static/images/invador1.png,4,20,8,2.5,right,74,2,618.0,-1.49333823585852,1,0,1,580.0,64.0,9.0625,72.5,13.571461243239717,108.57168994591774
1,11,0,../static/images/invador3.png,1,80,2,40.0,right,74,2,512.0,-1.96896264287532,1,0,1,600.0,74.0,8.108108108108109,16.216216216216218,9.874780990504453,19.749561981008906
1,12,0,../static/images/invador2.png,2,20,2,10.0,left,70,2,631.0,-1.43500694065835,0,0,1,680.0,78.0,8.717948717948717,17.435897435897434,11.806618692231698,23.613237384463396
1,13,0,../static/images/invador3.png,1,80,2,40.0,left,70,2,824.0,-0.569011558071165,0,0,1,700.0,82.0,8.536585365853659,17.073170731707318,10.618874003832502,21.237748007665004
1,14,0,../static/images/invador3.png,1,80,2,40.0,left,70,2,1063.0,0.503386869070481,0,0,1,780.0,86.0,9.069767441860465,18.13953488372093,12.417581543825742,24.835163087651484
1,15,0,../static/images/invador1.png,4,20,8,2.5,right,70,1,1007.0,0.252113597438965,0,0,1,860.0,90.0,9.555555555555555,76.44444444444444,13.894471486526347,111.15577189221078
1,16,0,../static/images/invador2.png,2,20,2,10.0,right,70,1,1072.0,0.543770073439832,0,0,1,860.0,92.0,9.347826086956522,18.695652173913043,12.915576302548919,25.831152605097838
1,17,0,../static/images/invador3.png,1,80,2,40.0,left,70,2,893.0,-0.259406991239476,0,0,1,860.0,94.0,9.148936170212766,18.29787234042553,12.00564637443915,24.0112927488783
1,18,0,../static/images/invador3.png,1,80,2,40.0,left,70,2,1044.0,0.418133437624074,0,0,1,940.0,98.0,9.591836734693878,19.183673469387756,13.556238118852795,27.11247623770559
1,19,0,../static/images/invador3.png,1,80,2,40.0,left,70,2,1044.0,0.418133437624074,0,0,1,1020.0,102.0,10.0,20.0,14.829404157044697,29.658808314089395
1,20,0,../static/images/invador4.png,3,80,8,10.0,left,74,1,870.0,-0.362608513516706,0,0,1,1100.0,106.0,10.377358490566039,83.01886792452831,15.874780392694802,126.99824314155842
1,21,0,../static/images/invador2.png,2,20,2,10.0,right,70,1,1019.0,0.305957869931433,0,0,1,1100.0,108.0,10.185185185185185,20.37037037037037,14.756368217882873,29.512736435765746
1,22,0,../static/images/invador3.png,1,80,2,40.0,left,70,2,1130.0,0.804017390486758,0,0,1,1100.0,110.0,10.0,20.0,13.716750568842347,27.433501137684694
1,23,0,../static/images/invador4.png,3,80,8,10.0,left,74,1,712.0,-1.0715581013342,0,0,1,1180.0,114.0,10.350877192982455,82.80701754385964,14.96119835804565,119.6895868643652
1,24,0,../static/images/invador1.png,4,20,8,2.5,left,74,1,737.0,-0.959382533641555,0,0,1,1180.0,116.0,10.172413793103448,81.37931034482759,13.907149988273268,111.25719990618614
1,25,0,../static/images/invador3.png,1,80,2,40.0,left,70,2,1111.0,0.718763959040351,0,0,1,1180.0,118.0,10.0,20.0,12.927361576776379,25.854723153552758
1,26,0,../static/images/invador3.png,1,80,2,40.0,right,70,1,838.0,-0.506193240163286,2,0,1,1260.0,122.0,10.327868852459016,20.65573770491803,14.31304370402937,28.62608740805874
1,27,0,../static/images/invador3.png,1,80,2,40.0,right,74,2,1205.0,1.14054409356468,0,0,1,1260.0,124.0,10.161290322580646,20.322580645161292,13.304659213585136,26.609318427170273
1,28,0,../static/images/invador3.png,1,80,2,40.0,right,70,1,606.0,-1.54718250835099,2,0,1,1340.0,128.0,10.46875,20.9375,14.6228367486561,29.2456734973122
1,29,0,../static/images/invador3.png,1,80,2,40.0,left,70,2,997.0,0.207243370361909,0,0,1,1340.0,130.0,10.307692307692308,20.615384615384617,13.592626676741647,27.185253353483294
1,30,0,../static/images/invador2.png,2,20,2,10.0,left,74,1,682.0,-1.20616878256536,2,0,1,1420.0,134.0,10.597014925373134,21.19402985074627,14.859282218919963,29.718564437839927
1,31,0,../static/images/invador4.png,3,80,8,10.0,right,74,2,859.0,-0.411965763301468,1,0,1,1420.0,136.0,10.441176470588236,83.52941176470588,13.812414058762354,110.49931247009883
1,32,0,../static/images/invador1.png,4,20,8,2.5,right,70,1,830.0,-0.542089421824931,0,0,1,1500.0,146.0,10.273972602739725,82.1917808219178,12.80763067412104,102.46104539296832
1,33,0,../static/images/invador3.png,1,80,2,40.0,left,70,2,1107.0,0.700815868209529,0,0,1,1500.0,148.0,10.135135135135135,20.27027027027027,11.905305746021666,23.810611492043332
1,34,0,../static/images/invador3.png,1,80,2,40.0,right,74,2,1262.0,1.3963043879039,0,0,1,1580.0,152.0,10.394736842105264,20.789473684210527,13.47385003648861,26.94770007297722
1,35,0,../static/images/invador3.png,1,80,2,40.0,left,70,2,1328.0,1.69244788661247,0,0,1,1660.0,156.0,10.64102564102564,21.28205128205128,14.761756622614216,29.523513245228433
1,36,0,../static/images/invador3.png,1,80,2,40.0,left,70,2,1332.0,1.7103959774433,0,0,1,1740.0,160.0,10.875,21.75,15.819236086003762,31.638472172007525
1,37,0,../static/images/invador1.png,4,20,8,2.5,right,74,2,815.0,-0.609394762440515,1,0,1,1820.0,164.0,11.097560975609756,88.78048780487805,16.687515530753473,133.50012424602778
1,38,0,../static/images/invador3.png,1,80,2,40.0,right,74,2,1164.0,0.956576162548749,0,0,1,1840.0,174.0,10.574712643678161,21.149425287356323,11.929762251574711,23.859524503149423
1,39,0,../static/images/invador3.png,1,80,2,40.0,left,70,2,1452.0,2.24883870236797,0,0,1,1920.0,178.0,10.786516853932584,21.573033707865168,13.493930881362944,26.98786176272589
1,40,0,../static/images/invador4.png,3,80,8,10.0,right,70,1,1048.0,0.436081528454896,0,0,1,2000.0,182.0,10.989010989010989,87.91208791208791,14.778244682610868,118.22595746088695
1,41,0,../static/images/invador2.png,2,20,2,10.0,left,74,1,1228.0,1.24374561584191,0,0,1,2000.0,184.0,10.869565217391305,21.73913043478261,13.737085789919194,27.474171579838387
1,42,0,../static/images/invador3.png,1,80,2,40.0,right,74,2,1304.0,1.58475934162754,0,0,1,2000.0,186.0,10.75268817204301,21.50537634408602,12.769278764320806,25.53855752864161
1,43,0,../static/images/invador2.png,2,20,2,10.0,left,74,1,906.0,-0.201075696039303,0,0,1,2080.0,190.0,10.947368421052632,21.894736842105264,14.183244439480594,28.36648887896119
1,44,0,../static/images/invador1.png,4,20,8,2.5,right,70,1,782.0,-0.757466511794801,0,0,1,2080.0,192.0,10.833333333333334,86.66666666666667,13.18400458437379,105.47203667499032
1,45,0,../static/images/invador3.png,1,80,2,40.0,left,70,2,1384.0,1.94372115824399,0,0,1,2080.0,194.0,10.721649484536082,21.443298969072163,12.255163310656057,24.510326621312114
1,46,0,../static/images/invador4.png,3,80,8,10.0,right,70,1,954.0,0.0143013939305671,0,0,1,2160.0,198.0,10.909090909090908,87.27272727272727,13.761112477490109,110.08889981992087
1,47,0,../static/images/invador3.png,1,80,2,40.0,left,74,1,753.0,-0.887590170318265,2,0,1,2160.0,200.0,10.8,21.6,12.79161272045009,25.58322544090018
1,48,0,../static/images/invador3.png,1,80,2,40.0,left,70,2,1212.0,1.17195325251862,0,0,1,2160.0,202.0,10.693069306930694,21.386138613861387,11.890416291388687,23.780832582777375
1,49,0,../static/images/invador3.png,1,80,2,40.0,right,70,1,700.0,-1.12540237382666,2,0,1,2240.0,206.0,10.87378640776699,21.74757281553398,13.46162454384414,26.92324908768828
1,50,0,../static/images/invador4.png,3,80,8,10.0,left,74,1,1032.0,0.364289165131606,0,0,1,2240.0,208.0,10.76923076923077,86.15384615384616,12.513224351202066,100.10579480961653
1,51,0,../static/images/invador2.png,2,20,2,10.0,left,74,1,1086.0,0.60658839134771,0,0,1,2240.0,210.0,10.666666666666666,21.333333333333332,11.631640977174566,23.263281954349132
1,52,0,../static/images/invador1.png,4,20,8,2.5,right,70,1,990.0,0.17583421140797,0,0,1,2240.0,212.0,10.566037735849056,84.52830188679245,10.812167034221643,86.49733627377314
1,53,0,../static/images/invador3.png,1,80,2,40.0,right,74,2,1172.0,0.992472344210395,0,0,1,2240.0,214.0,10.467289719626168,20.934579439252335,10.050426780306802,20.100853560613604
1,54,0,../static/images/invador3.png,1,80,2,40.0,left,74,1,706.0,-1.09848023758043,2,0,1,2320.0,218.0,10.642201834862385,21.28440366972477,11.950838636090815,23.90167727218163
1,55,0,../static/images/invador3.png,1,80,2,40.0,right,74,2,833.0,-0.528628353701814,1,0,1,2320.0,220.0,10.545454545454545,21.09090909090909,11.108876536510056,22.217753073020113
1,56,0,../static/images/invador1.png,4,20,8,2.5,left,74,1,1077.0,0.56620518697836,0,0,1,2400.0,224.0,10.714285714285714,85.71428571428571,12.819914772724106,102.55931818179285
1,57,0,../static/images/invador3.png,1,80,2,40.0,left,70,2,1216.0,1.18990134334944,0,0,1,2400.0,226.0,10.619469026548673,21.238938053097346,11.916724403648894,23.83344880729779
1,58,0,../static/images/invador3.png,1,80,2,40.0,left,74,1,529.0,-1.89268325684433,2,0,1,2480.0,230.0,10.782608695652174,21.565217391304348,13.483225713319795,26.96645142663959
1,59,0,../static/images/invador3.png,1,80,2,40.0,left,74,1,4.0,-4.24837017838978,2,0,1,2480.0,232.0,10.689655172413794,21.379310344827587,12.533303672164916,25.06660734432983
1,60,0,../static/images/invador3.png,1,80,2,40.0,left,70,2,1383.0,1.93923413553628,1,0,1,2480.0,234.0,10.598290598290598,21.196581196581196,11.650305667101817,23.300611334203634
1,61,0,../static/images/invador4.png,3,80,8,10.0,right,70,1,1122.0,0.768121208825113,0,0,1,2560.0,238.0,10.756302521008404,86.05042016806723,13.264473557227287,106.1157884578183
1,62,0,../static/images/invador2.png,2,20,2,10.0,right,70,1,1212.0,1.17195325251862,0,0,1,2560.0,240.0,10.666666666666666,21.333333333333332,12.329963072553074,24.659926145106148
1,63,0,../static/images/invador3.png,1,80,2,40.0,left,70,2,1288.0,1.51296697830425,0,0,1,2560.0,242.0,10.578512396694215,21.15702479338843,11.46129084690952,22.92258169381904
1,64,0,../static/images/invador2.png,2,20,2,10.0,right,70,1,926.0,-0.111335241885191,0,0,1,2640.0,246.0,10.731707317073171,21.463414634146343,13.109276516709839,26.218553033419678
1,65,0,../static/images/invador3.png,1,80,2,40.0,right,74,2,1307.0,1.59822040975065,0,0,1,2640.0,248.0,10.64516129032258,21.29032258064516,12.185699994919887,24.371399989839773
1,66,0,../static/images/invador3.png,1,80,2,40.0,left,70,2,1225.0,1.23028454771879,0,0,1,2720.0,252.0,10.793650793650794,21.58730158730159,13.704077261860908,27.408154523721816
1,67,0,../static/images/invador1.png,4,20,8,2.5,right,70,1,799.0,-0.681187125763806,0,0,1,2800.0,256.0,10.9375,87.5,14.950792508731361,119.60634006985089
1,68,0,../static/images/invador3.png,1,80,2,40.0,right,74,2,1272.0,1.44117461498096,0,0,1,2800.0,258.0,10.852713178294573,21.705426356589147,13.897477253261949,27.794954506523897
1,69,0,../static/images/invador4.png,3,80,8,10.0,left,70,2,1033.0,0.368776187839312,1,0,1,2880.0,262.0,10.992366412213741,87.93893129770993,15.109590143070324,120.8767211445626
1,70,0,../static/images/invador2.png,2,20,2,10.0,right,70,1,992.0,0.184808256823381,0,0,1,2960.0,272.0,10.882352941176471,21.764705882352942,13.663094764154039,27.326189528308078
1,71,0,../static/images/invador3.png,1,80,2,40.0,left,70,2,1322.0,1.66552575036624,0,0,1,2960.0,274.0,10.802919708029197,21.605839416058394,12.700500564307914,25.401001128615828
1,72,0,../static/images/invador3.png,1,80,2,40.0,left,70,2,1277.0,1.46360972851949,0,0,1,3040.0,278.0,10.93525179856115,21.8705035971223,14.126771761395045,28.25354352279009
1,73,0,../static/images/invador3.png,1,80,2,40.0,left,70,2,1295.0,1.54437613725819,0,0,1,3120.0,282.0,11.063829787234043,22.127659574468087,15.297860190006093,30.595720380012185
1,74,0,../static/images/invador4.png,3,80,8,10.0,right,70,1,899.0,-0.232484854993243,0,0,1,3200.0,286.0,11.188811188811188,89.5104895104895,16.259422135888197,130.07537708710558
1,75,0,../static/images/invador1.png,4,20,8,2.5,right,70,1,953.0,0.00981437122286147,2,0,1,3200.0,288.0,11.11111111111111,88.88888888888889,15.113911128973598,120.91128903178878
1,76,0,../static/images/invador3.png,1,80,2,40.0,left,70,2,3.0,-4.25285720109749,0,0,1,3200.0,290.0,11.03448275862069,22.06896551724138,14.049103818414,28.098207636828
1,77,0,../static/images/invador2.png,2,20,2,10.0,left,74,1,975.0,0.108528870792385,0,0,1,3280.0,294.0,11.156462585034014,22.312925170068027,15.234088286398366,30.468176572796732
1,78,0,../static/images/invador3.png,1,80,2,40.0,left,70,2,1388.0,1.96166924907481,0,0,1,3280.0,296.0,11.08108108108108,22.16216216216216,14.16081423849354,28.32162847698708
1,79,0,../static/images/invador3.png,1,80,2,40.0,left,70,2,1032.0,0.364289165131606,1,0,1,3360.0,300.0,11.2,22.4,15.325811922532647,30.651623845065295
1,80,0,../static/images/invador4.png,3,80,8,10.0,right,70,1,849.0,-0.456835990378524,0,0,1,3440.0,304.0,11.31578947368421,90.52631578947368,16.282372855630932,130.25898284504746
1,81,0,../static/images/invador3.png,1,80,2,40.0,right,74,2,1271.0,1.43668759227325,0,0,1,3440.0,306.0,11.241830065359476,22.483660130718953,15.135244921505626,30.27048984301125
1,82,0,../static/images/invador3.png,1,80,2,40.0,left,74,1,971.0,0.0905807799615628,2,0,1,3520.0,310.0,11.35483870967742,22.70967741935484,16.125901344298697,32.251802688597394
1,83,0,../static/images/invador1.png,4,20,8,2.5,left,74,1,1035.0,0.377750233254723,0,0,1,3520.0,312.0,11.282051282051283,90.25641025641026,14.989797162247827,119.91837729798262
1,84,0,../static/images/invador3.png,1,80,2,40.0,left,70,2,1272.0,1.44117461498096,0,0,1,3520.0,314.0,11.210191082802547,22.420382165605094,13.933733945654668,27.867467891309335
1,85,0,../static/images/invador3.png,1,80,2,40.0,left,70,2,1266.0,1.41425247873472,0,0,1,3600.0,318.0,11.320754716981131,22.641509433962263,15.139359932299426,30.278719864598852
1,86,0,../static/images/invador4.png,3,80,8,10.0,right,70,1,825.0,-0.564524535363459,2,0,1,3680.0,322.0,11.428571428571429,91.42857142857143,16.12928011373194,129.03424090985553
1,87,0,../static/images/invador2.png,2,20,2,10.0,right,70,1,1137.0,0.835426549440697,2,0,1,3680.0,324.0,11.358024691358025,22.71604938271605,14.992937890160082,29.985875780320164
1,88,0,../static/images/invador3.png,1,80,2,40.0,left,70,2,1360.0,1.83603261325905,0,0,1,3680.0,326.0,11.28834355828221,22.57668711656442,13.936653402579362,27.873306805158723
1,89,0,../static/images/invador1.png,4,20,8,2.5,left,74,1,724.0,-1.01771382884173,0,0,1,3760.0,330.0,11.393939393939394,91.15151515151516,15.141757051605575,121.1340564128446
1,90,0,../static/images/invador3.png,1,80,2,40.0,right,74,2,1119.0,0.754660140701996,0,0,1,3760.0,332.0,11.325301204819278,22.650602409638555,14.074987936339387,28.149975872678773
1,91,0,../static/images/invador1.png,4,20,8,2.5,right,74,2,1174.0,1.00144638962581,1,0,1,3840.0,336.0,11.428571428571429,91.42857142857143,15.255341320918818,122.04273056735055
1,92,0,../static/images/invador2.png,2,20,2,10.0,left,70,2,943.0,-0.0350558558541948,1,0,1,3860.0,346.0,11.15606936416185,22.3121387283237,10.985269347329915,21.97053869465983
1,93,0,../static/images/invador3.png,1,80,2,40.0,right,74,2,881.0,-0.313251263731944,1,0,1,3880.0,350.0,11.085714285714285,22.17142857142857,9.944477216162547,19.888954432325093
1,94,0,../static/images/invador3.png,1,80,2,40.0,left,70,2,1179.0,1.02388150316433,0,0,1,3960.0,354.0,11.186440677966102,22.372881355932204,11.863845146466174,23.727690292932348
1,95,0,../static/images/invador4.png,3,80,8,10.0,right,74,2,1022.0,0.31941893805455,1,0,1,4040.0,358.0,11.28491620111732,90.27932960893855,13.439807402463694,107.51845921970956
1,96,0,../static/images/invador3.png,1,80,2,40.0,right,74,2,1010.0,0.265574665562082,0,0,1,4120.0,368.0,11.195652173913043,22.391304347826086,12.561903345328343,25.123806690656686
1,97,0,../static/images/invador3.png,1,80,2,40.0,right,74,2,1157.0,0.92516700359481,0,0,1,4200.0,372.0,11.290322580645162,22.580645161290324,14.012971805456699,28.025943610913398
1,98,0,../static/images/invador2.png,2,20,2,10.0,left,74,1,901.0,-0.223510809577831,2,0,1,4280.0,376.0,11.382978723404255,22.76595744680851,15.204420869456106,30.408841738912212
1,99,0,../static/images/invador3.png,1,80,2,40.0,right,74,2,1374.0,1.89885093116693,0,0,1,4280.0,378.0,11.322751322751323,22.645502645502646,14.133236954421319,28.266473908842638
1,100,0,../static/images/invador3.png,1,80,2,40.0,left,70,2,1083.0,0.593127323224593,0,0,1,4360.0,382.0,11.413612565445026,22.827225130890053,15.303168656416457,30.606337312832913
1,101,0,../static/images/invador3.png,1,80,2,40.0,right,74,2,1159.0,0.934141049010221,1,0,1,4440.0,386.0,11.50259067357513,23.00518134715026,16.263780832606987,32.52756166521397
1,102,0,../static/images/invador1.png,4,20,8,2.5,left,70,2,1197.0,1.10464791190304,1,0,1,4520.0,390.0,11.58974358974359,92.71794871794872,17.052524099818097,136.42019279854478
1,103,0,../static/images/invador3.png,1,80,2,40.0,left,74,1,876.0,-0.335686377270472,2,0,1,4540.0,400.0,11.35,22.7,12.170478779705658,24.340957559411315
1,104,0,../static/images/invador4.png,3,80,8,10.0,left,74,1,987.0,0.162373143284853,0,0,1,4540.0,402.0,11.293532338308458,90.34825870646766,11.313042563027233,90.50434050421786
1,105,0,../static/images/invador3.png,1,80,2,40.0,left,70,2,1207.0,1.14951813898009,0,0,1,4540.0,404.0,11.237623762376238,22.475247524752476,10.516014558628655,21.03202911725731
1,106,0,../static/images/invador3.png,1,80,2,40.0,left,70,2,1115.0,0.736712049871174,0,0,1,4620.0,408.0,11.323529411764707,22.647058823529413,12.333125301354055,24.66625060270811
1,107,0,../static/images/invador3.png,1,80,2,40.0,right,74,2,1027.0,0.341854051593078,1,0,1,4700.0,412.0,11.407766990291263,22.815533980582526,13.82512581896708,27.65025163793416
1,108,0,../static/images/invador4.png,3,80,8,10.0,right,70,1,1624.0,3.02060660809334,0,0,1,4780.0,416.0,11.490384615384615,91.92307692307692,15.0501835395652,120.4014683165216
1,109,0,../static/images/invador3.png,1,80,2,40.0,right,74,2,984.0,0.148912075161736,0,0,1,4780.0,418.0,11.435406698564593,22.870813397129186,13.98986597375184,27.97973194750368
1,110,0,../static/images/invador1.png,4,20,8,2.5,right,70,1,977.0,0.117502916207797,0,0,1,4860.0,422.0,11.516587677725118,92.13270142180095,15.185449041238401,121.48359232990721
1,111,0,../static/images/invador2.png,2,20,2,10.0,right,70,1,649.0,-1.35424053191965,2,0,1,4860.0,424.0,11.462264150943396,22.92452830188679,14.115601732010576,28.231203464021153
1,112,0,../static/images/invador4.png,3,80,8,10.0,right,70,1,786.0,-0.739518420963979,2,0,1,4860.0,426.0,11.408450704225352,91.26760563380282,13.121127450077088,104.9690196006167
1,113,0,../static/images/invador3.png,1,80,2,40.0,right,74,2,1289.0,1.51745400101195,0,0,1,4860.0,428.0,11.355140186915888,22.710280373831775,12.196716004727065,24.39343200945413
1,114,0,../static/images/invador3.png,1,80,2,40.0,left,70,2,1000.0,0.220704438485026,0,0,1,4940.0,432.0,11.435185185185185,22.87037037037037,13.71312233101816,27.42624466203632
1,115,0,../static/images/invador3.png,1,80,2,40.0,left,70,2,760.0,-0.856181011364325,1,0,1,5020.0,436.0,11.513761467889909,23.027522935779817,14.958219270098821,29.916438540197642
1,116,0,../static/images/invador2.png,2,20,2,10.0,right,70,1,1027.0,0.341854051593078,0,0,1,5100.0,440.0,11.590909090909092,23.181818181818183,15.980548418183918,31.961096836367837
1,117,0,../static/images/invador3.png,1,80,2,40.0,right,74,2,1054.0,0.46300366470113,0,0,1,5100.0,442.0,11.538461538461538,23.076923076923077,14.85468466013829,29.70936932027658
1,118,0,../static/images/invador1.png,4,20,8,2.5,left,74,1,790.0,-0.721570330133156,0,0,1,5180.0,446.0,11.614349775784753,92.91479820627802,15.89553780874782,127.16430246998256
1,119,0,../static/images/invador3.png,1,80,2,40.0,right,74,2,1156.0,0.920679980887104,0,0,1,5180.0,448.0,11.5625,23.125,14.77566322965331,29.55132645930662
1,120,0,../static/images/invador2.png,2,20,2,10.0,left,74,1,931.0,-0.0889001283466624,2,0,1,5260.0,452.0,11.63716814159292,23.27433628318584,15.830654578235801,31.661309156471603
1,121,0,../static/images/invador4.png,3,80,8,10.0,right,70,1,1023.0,0.323905960762256,0,0,1,5260.0,454.0,11.58590308370044,92.68722466960352,14.715351161270824,117.7228092901666
1,122,0,../static/images/invador3.png,1,80,2,40.0,right,74,2,1139.0,0.844400594856109,0,0,1,5260.0,456.0,11.535087719298245,23.07017543859649,13.678623251449052,27.357246502898104
1,123,0,../static/images/invador1.png,4,20,8,2.5,right,70,1,851.0,-0.447861944963113,0,0,1,5340.0,460.0,11.608695652173912,92.8695652173913,14.929892628599207,119.43914102879366
1,124,0,../static/images/invador3.png,1,80,2,40.0,right,74,2,791.0,-0.717083307425451,1,0,1,5340.0,462.0,11.558441558441558,23.116883116883116,13.878049814310945,27.75609962862189
1,125,0,../static/images/invador3.png,1,80,2,40.0,right,74,2,1302.0,1.57578529621213,0,0,1,5420.0,466.0,11.630901287553648,23.261802575107296,15.093638584208632,30.187277168417264
1,126,0,../static/images/invador3.png,1,80,2,40.0,right,74,2,1299.0,1.56232422808901,0,0,1,5500.0,470.0,11.702127659574469,23.404255319148938,16.091739047349208,32.183478094698415
1,127,0,../static/images/invador3.png,1,80,2,40.0,right,74,2,1198.0,1.10913493461074,0,0,1,5580.0,474.0,11.772151898734178,23.544303797468356,16.91126334634818,33.82252669269636
1,128,0,../static/images/invador3.png,1,80,2,40.0,left,70,2,1135.0,0.826452504025286,0,0,1,5660.0,478.0,11.841004184100418,23.682008368200837,17.584161618067714,35.16832323613543
1,129,0,../static/images/invador3.png,1,80,2,40.0,right,74,2,1117.0,0.745686095286585,0,0,1,5740.0,482.0,11.908713692946058,23.817427385892117,18.136667607989196,36.27333521597839
1,130,0,../static/images/invador1.png,4,20,8,2.5,right,70,1,927.0,-0.106848219177485,0,0,1,5820.0,486.0,11.975308641975309,95.80246913580247,18.590321424217674,148.7225713937414
1,131,0,../static/images/invador2.png,2,20,2,10.0,left,74,1,711.0,-1.0760451240419,2,0,1,5820.0,488.0,11.926229508196721,23.852459016393443,17.28059358545778,34.56118717091556
1,132,0,../static/images/invador4.png,3,80,8,10.0,right,70,1,978.0,0.121989938915502,0,0,1,5820.0,490.0,11.877551020408163,95.0204081632653,16.06313886949543,128.50511095596343
1,133,0,../static/images/invador1.png,4,20,8,2.5,right,70,1,957.0,0.027762462053684,0,0,1,5820.0,492.0,11.829268292682928,94.63414634146342,14.931456437806133,119.45165150244907
1,134,0,../static/images/invador3.png,1,80,2,40.0,left,70,2,1270.0,1.43220056956555,0,0,1,5820.0,494.0,11.781376518218623,23.562753036437247,13.879503449820167,27.759006899640333
1,135,0,../static/images/invador2.png,2,20,2,10.0,right,70,1,882.0,-0.308764241024238,0,0,1,5900.0,498.0,11.847389558232932,23.694779116465863,15.094832141035516,30.189664282071032
1,136,0,../static/images/invador3.png,1,80,2,40.0,left,70,2,727.0,-1.00425276071861,1,0,1,5900.0,500.0,11.8,23.6,14.03136898591399,28.06273797182798
1,137,0,../static/images/invador3.png,1,80,2,40.0,left,70,2,1095.0,0.646971595717061,0,0,1,5980.0,504.0,11.865079365079366,23.73015873015873,15.219526499575116,30.43905299915023
1,138,0,../static/images/invador4.png,3,80,8,10.0,right,70,1,924.0,-0.120309287300602,0,0,1,6060.0,508.0,11.929133858267717,95.43307086614173,16.195103597715747,129.56082878172597
1,139,0,../static/images/invador3.png,1,80,2,40.0,left,70,2,1440.0,2.1949944298755,0,0,1,6060.0,510.0,11.882352941176471,23.764705882352942,15.05412396914962,30.10824793829924
1,140,0,../static/images/invador3.png,1,80,2,40.0,right,70,1,873.0,-0.349147445393589,2,0,1,6140.0,514.0,11.945525291828794,23.891050583657588,16.059294230016334,32.11858846003267
1,141,0,../static/images/invador3.png,1,80,2,40.0,right,74,2,758.0,-0.865155056779736,1,0,1,6140.0,516.0,11.89922480620155,23.7984496124031,14.92788266138749,29.85576532277498
1,142,0,../static/images/invador3.png,1,80,2,40.0,left,70,2,951.0,0.000840325807450209,0,0,1,6220.0,520.0,11.961538461538462,23.923076923076923,15.955639514815683,31.911279029631366
1,143,0,../static/images/invador1.png,4,20,8,2.5,left,74,1,971.0,0.0905807799615628,0,0,1,6300.0,524.0,12.022900763358779,96.18320610687023,16.79951420073345,134.3961136058676
1,144,0,../static/images/invador3.png,1,80,2,40.0,left,70,2,876.0,-0.335686377270472,1,0,1,6300.0,526.0,11.977186311787072,23.954372623574145,15.615952554635195,31.23190510927039
1,145,0,../static/images/invador2.png,2,20,2,10.0,right,70,1,1004.0,0.238652529315849,0,0,1,6380.0,530.0,12.037735849056604,24.07547169811321,16.520602680098484,33.04120536019697
1,146,0,../static/images/invador4.png,3,80,8,10.0,right,70,1,891.0,-0.268381036654888,0,0,1,6380.0,532.0,11.992481203007518,95.93984962406014,15.356690946166383,122.85352756933106
1,147,0,../static/images/invador2.png,2,20,2,10.0,left,74,1,880.0,-0.31773828643965,0,0,1,6380.0,534.0,11.94756554307116,23.89513108614232,14.274779279097263,28.549558558194526
1,148,0,../static/images/invador1.png,4,20,8,2.5,right,74,2,725.0,-1.01322680613402,1,0,1,6380.0,536.0,11.902985074626866,95.22388059701493,13.269090599092456,106.15272479273965
1,149,0,../static/images/invador3.png,1,80,2,40.0,left,70,2,1059.0,0.485438778239658,0,0,1,6400.0,546.0,11.72161172161172,23.44322344322344,9.675373037276481,19.350746074552962
1,150,0,../static/images/invador3.png,1,80,2,40.0,right,74,2,965.0,0.063658643715329,0,0,1,6480.0,550.0,11.781818181818181,23.563636363636363,11.642888016694522,23.285776033389045
1,151,0,../static/images/invador4.png,3,80,8,10.0,left,74,1,975.0,0.108528870792385,0,0,1,6560.0,554.0,11.84115523465704,94.72924187725631,13.258383043321368,106.06706434657094
1,152,0,../static/images/invador3.png,1,80,2,40.0,right,74,2,787.0,-0.735031398256273,1,0,1,6560.0,556.0,11.798561151079136,23.597122302158272,12.324301648356414,24.648603296712828
1,153,0,../static/images/invador3.png,1,80,2,40.0,right,74,2,903.0,-0.21453676416242,0,0,1,6640.0,560.0,11.857142857142858,23.714285714285715,13.817880858860814,27.63576171772163
1,154,0,../static/images/invador1.png,4,20,8,2.5,right,74,2,1448.0,2.23089061153715,1,0,1,6720.0,564.0,11.914893617021276,95.31914893617021,15.044234818898664,120.35387855118931
1,155,2,../static/images/invador1.png,4,20,8,2.5,right,74,2,1227.0,1.2392585931342,0,0,1,6740.0,574.0,11.742160278745645,93.93728222996516,10.846048439825235,86.76838751860188
1,156,2,../static/images/invador1.png,4,20,8,2.5,left,74,1,1074.0,0.552744118855243,0,0,1,6760.0,584.0,11.575342465753424,92.6027397260274,8.077420699915171,64.61936559932137
1,157,2,../static/images/invador1.png,4,20,8,2.5,right,70,1,1000.0,0.220704438485026,0,0,1,6760.0,586.0,11.535836177474403,92.28668941979522,7.508349164536943,60.066793316295545
1,158,2,../static/images/invador1.png,4,20,8,2.5,left,74,1,960.0,0.0412235301768009,2,0,1,6760.0,588.0,11.496598639455783,91.97278911564626,6.979369933918963,55.8349594713517
1,159,2,../static/images/invador1.png,4,20,8,2.5,left,74,1,862.0,-0.398504695178351,0,0,1,6760.0,590.0,11.457627118644067,91.66101694915254,6.487658419584985,51.90126735667988
1,160,2,../static/images/invador1.png,4,20,8,2.5,left,74,1,768.0,-0.82028482970268,0,0,1,6760.0,592.0,11.41891891891892,91.35135135135135,6.0305890313480335,48.24471225078427
1,161,2,../static/images/invador1.png,4,20,8,2.5,right,74,2,893.0,-0.259406991239476,0,0,1,6760.0,594.0,11.38047138047138,91.04377104377105,5.605721157456016,44.84576925964813
1,162,2,../static/images/invador1.png,4,20,8,2.5,left,74,1,716.0,-1.05361001050337,2,0,1,6780.0,604.0,11.225165562913908,89.80132450331126,4.621519944175714,36.97215955340571
1,163,2,../static/images/invador1.png,4,20,8,2.5,right,74,2,941.0,-0.0440299012696061,0,0,1,6780.0,606.0,11.188118811881187,89.5049504950495,4.295923996147305,34.36739196917844
1,164,2,../static/images/invador1.png,4,20,8,2.5,left,74,1,748.0,-0.910025283856793,2,0,1,6800.0,616.0,11.03896103896104,88.31168831168831,3.757732482873171,30.06185986298537
1,165,2,../static/images/invador1.png,4,20,8,2.5,right,74,2,941.0,-0.0440299012696061,0,0,1,6800.0,618.0,11.003236245954692,88.02588996763754,3.49299220586968,27.94393764695744
1,166,2,../static/images/invador1.png,4,20,8,2.5,right,70,1,1004.0,0.238652529315849,2,0,1,6820.0,628.0,10.859872611464969,86.87898089171975,3.2282135365730964,25.82570829258477
1,167,2,../static/images/invador1.png,4,20,8,2.5,right,70,1,626.0,-1.45744205419688,2,0,1,6820.0,630.0,10.825396825396826,86.60317460317461,3.0007789999758225,24.00623199980658
1,168,2,../static/images/invador1.png,4,20,8,2.5,left,70,2,884.0,-0.299790195608827,0,0,1,6820.0,632.0,10.791139240506329,86.32911392405063,2.789367712104569,22.314941696836552
1,169,2,../static/images/invador1.png,4,20,8,2.5,left,70,2,930.0,-0.093387151054368,0,0,1,6840.0,642.0,10.654205607476635,85.23364485981308,2.7641859503685464,22.11348760294837
1,170,2,../static/images/invador1.png,4,20,8,2.5,right,74,2,661.0,-1.30039625942718,0,0,1,6860.0,652.0,10.521472392638037,84.1717791411043,2.747579035432687,21.980632283461496
1,171,2,../static/images/invador1.png,4,20,8,2.5,right,74,2,893.0,-0.259406991239476,0,0,1,6880.0,662.0,10.392749244712991,83.14199395770393,2.7366270763689027,21.89301661095122
1,172,2,../static/images/invador1.png,4,20,8,2.5,left,70,2,827.0,-0.555550489948048,0,0,1,6900.0,672.0,10.267857142857142,82.14285714285714,2.7294044580922345,21.835235664737876
1,173,2,../static/images/invador1.png,4,20,8,2.5,right,74,2,713.0,-1.06707107862649,0,0,1,6920.0,682.0,10.146627565982405,81.17302052785924,2.7246412723948965,21.797130179159172
1,174,2,../static/images/invador1.png,4,20,8,2.5,right,74,2,1062.0,0.498899846362775,0,0,1,6940.0,692.0,10.028901734104046,80.23121387283237,2.721500037856638,21.772000302853105
1,175,2,../static/images/invador1.png,4,20,8,2.5,left,70,2,793.0,-0.708109262010039,0,0,1,6960.0,702.0,9.914529914529915,79.31623931623932,2.719428450677103,21.755427605416823
1,176,2,../static/images/invador1.png,4,20,8,2.5,right,74,2,648.0,-1.35872755462736,0,0,1,6980.0,712.0,9.803370786516854,78.42696629213484,2.7180622765216405,21.744498212173124
1,177,2,../static/images/invador1.png,4,20,8,2.5,right,74,2,1460.0,2.28473488402962,0,0,1,7000.0,722.0,9.695290858725762,77.5623268698061,2.7171613094556677,21.73729047564534
1,178,2,../static/images/invador1.png,4,20,8,2.5,right,74,2,732.0,-0.981817647180083,0,0,1,7020.0,732.0,9.59016393442623,76.72131147540983,2.7165671380239202,21.732537104191362
1,179,2,../static/images/invador1.png,4,20,8,2.5,left,70,2,674.0,-1.24206496422701,1,0,1,7040.0,742.0,9.487870619946092,75.90296495956873,2.716175292746064,21.729402341968513
1,180,2,../static/images/invador1.png,4,20,8,2.5,left,70,2,817.0,-0.600420717025104,1,0,1,7060.0,752.0,9.388297872340425,75.1063829787234,2.7159168778954443,21.727335023163555
1,181,2,../static/images/invador1.png,4,20,8,2.5,left,70,2,802.0,-0.667726057640689,0,0,1,7080.0,762.0,9.291338582677165,74.33070866141732,2.7157464579904587,21.72597166392367
1,182,2,../static/images/invador1.png,4,20,8,2.5,left,70,2,752.0,-0.89207719302597,0,0,1,7100.0,772.0,9.196891191709845,73.57512953367876,2.71563406915543,21.72507255324344
1,183,1,../static/images/invador4.png,3,80,8,10.0,right,74,2,865.0,-0.385043627055234,1,0,1,7120.0,782.0,9.104859335038363,72.8388746803069,2.7155599507580512,21.72447960606441
1,184,1,../static/images/invador1.png,4,20,8,2.5,left,70,2,1106.0,0.696328845501823,1,0,1,7200.0,792.0,9.090909090909092,72.72727272727273,5.489456744945344,43.91565395956275
1,185,1,../static/images/invador1.png,4,20,8,2.5,right,70,1,898.0,-0.236971877700948,0,0,1,7220.0,802.0,9.002493765586035,72.01995012468828,4.544845673770304,36.35876539016243
1,186,1,../static/images/invador2.png,2,20,2,10.0,right,74,2,1039.0,0.395698324085546,0,0,1,7220.0,804.0,8.980099502487562,17.960199004975124,4.224651591808382,8.449303183616763
1,187,1,../static/images/invador1.png,4,20,8,2.5,right,74,2,948.0,-0.0126207423156667,1,0,1,7240.0,808.0,8.96039603960396,71.68316831683168,4.393442293825811,35.14753835060649
1,188,1,../static/images/invador1.png,4,20,8,2.5,right,70,1,820.0,-0.586959648901987,0,0,1,7260.0,818.0,8.875305623471883,71.00244498777506,3.822044030699475,30.5763522455958
1,189,1,../static/images/invador1.png,4,20,8,2.5,right,70,1,878.0,-0.326712331855061,0,0,1,7260.0,820.0,8.853658536585366,70.82926829268293,3.5527728678323256,28.422182942658605
1,190,1,../static/images/invador1.png,4,20,8,2.5,right,70,1,947.0,-0.0171077650233723,0,0,1,7260.0,822.0,8.832116788321168,70.65693430656934,3.302472433342305,26.41977946673844
1,191,1,../static/images/invador4.png,3,80,8,10.0,right,74,2,1090.0,0.624536482178533,0,0,1,7260.0,824.0,8.810679611650485,70.48543689320388,3.0698061989085685,24.55844959126855
1,192,1,../static/images/invador3.png,1,80,2,40.0,left,70,2,1140.0,0.848887617563814,0,0,1,7340.0,834.0,8.80095923261391,17.60191846522782,5.7230757177183085,11.446151435436617
1,193,1,../static/images/invador2.png,2,20,2,10.0,left,74,1,664.0,-1.28693519130407,0,0,1,7420.0,838.0,8.854415274463006,17.708830548926013,8.397720010204734,16.79544002040947
1,194,1,../static/images/invador1.png,4,20,8,2.5,left,74,1,872.0,-0.353634468101295,2,0,1,7420.0,840.0,8.833333333333334,70.66666666666667,7.806082704507153,62.448661636057224
1,195,1,../static/images/invador1.png,4,20,8,2.5,left,74,1,1017.0,0.296983824516022,0,0,1,7420.0,842.0,8.812351543942993,70.49881235154395,7.2561275102717,58.0490200821736
1,196,1,../static/images/invador1.png,4,20,8,2.5,left,74,1,902.0,-0.219023786870126,0,0,1,7420.0,844.0,8.791469194312796,70.33175355450237,6.7449178337453946,53.959342669963156
1,197,1,../static/images/invador1.png,4,20,8,2.5,left,74,1,846.0,-0.470297058501641,0,0,1,7420.0,846.0,8.770685579196217,70.16548463356973,6.269723970475428,50.157791763803424
1,198,1,../static/images/invador4.png,3,80,8,10.0,left,70,2,1011.0,0.270061688269788,0,0,1,7420.0,848.0,8.75,70.0,5.828008529516212,46.624068236129695
1,199,1,../static/images/invador2.png,2,20,2,10.0,right,74,2,628.0,-1.44846800878147,1,0,1,7500.0,858.0,8.741258741258742,17.482517482517483,7.5420601065177255,15.084120213035451
1,200,1,../static/images/invador3.png,1,80,2,40.0,left,70,2,683.0,-1.20168175985766,1,0,1,7520.0,862.0,8.723897911832946,17.447795823665892,7.117313274664634,14.234626549329269
1,201,1,../static/images/invador1.png,4,20,8,2.5,right,74,2,1079.0,0.575179232393771,0,0,1,7600.0,866.0,8.775981524249422,70.20785219399538,9.54250613013017,76.34004904104135
1,202,1,../static/images/invador1.png,4,20,8,2.5,right,70,1,849.0,-0.456835990378524,0,0,1,7620.0,876.0,8.698630136986301,69.58904109589041,7.217758199756057,57.742065598048455
1,203,1,../static/images/invador3.png,1,80,2,40.0,right,70,1,807.0,-0.645290944102161,2,0,1,7620.0,878.0,8.67881548974943,17.35763097949886,6.7092517230824935,13.418503446164987
1,204,1,../static/images/invador1.png,4,20,8,2.5,right,70,1,861.0,-0.402991717886057,0,0,1,7620.0,880.0,8.659090909090908,69.27272727272727,6.236570613463717,49.89256490770973
1,205,1,../static/images/invador1.png,4,20,8,2.5,right,70,1,787.0,-0.735031398256273,0,0,1,7620.0,882.0,8.639455782312925,69.1156462585034,5.797190897295682,46.377527178365455
1,206,1,../static/images/invador1.png,4,20,8,2.5,left,70,2,947.0,-0.0171077650233723,1,0,1,7620.0,884.0,8.619909502262443,68.95927601809954,5.388766420303988,43.1101313624319
1,207,1,../static/images/invador4.png,3,80,8,10.0,right,74,2,944.0,-0.0305688331464892,0,0,1,7640.0,894.0,8.54586129753915,68.3668903803132,4.478442231719182,35.827537853753455
1,208,1,../static/images/invador1.png,4,20,8,2.5,left,74,1,789.0,-0.726057352840862,0,0,1,7720.0,904.0,8.539823008849558,68.31858407079646,6.652045621321561,53.216364970572485
1,209,1,../static/images/invador2.png,2,20,2,10.0,left,70,2,1172.0,0.992472344210395,0,0,1,7720.0,906.0,8.520971302428256,17.041942604856512,6.183394803719447,12.366789607438895
1,210,1,../static/images/invador1.png,4,20,8,2.5,right,70,1,856.0,-0.425426831424585,0,0,1,7740.0,910.0,8.505494505494505,68.04395604395604,6.001734962691479,48.013879701531835
1,211,1,../static/images/invador4.png,3,80,8,10.0,right,74,2,815.0,-0.609394762440515,0,0,1,7740.0,912.0,8.486842105263158,67.89473684210526,5.578899919546097,44.631199356368775
1,212,1,../static/images/invador1.png,4,20,8,2.5,left,74,1,1120.0,0.759147163409702,0,0,1,7820.0,922.0,8.481561822125814,67.85249457700651,7.377777498377322,59.02221998701857
1,213,1,../static/images/invador1.png,4,20,8,2.5,left,74,1,907.0,-0.196588673331598,0,0,1,7820.0,924.0,8.463203463203463,67.7056277056277,6.8579973204395035,54.86397856351603
1,214,1,../static/images/invador3.png,1,80,2,40.0,right,74,2,927.0,-0.106848219177485,0,0,1,7820.0,926.0,8.444924406047516,16.889848812095032,6.37483676588237,12.74967353176474
1,215,1,../static/images/invador2.png,2,20,2,10.0,left,70,2,1183.0,1.04182959399516,0,0,1,7900.0,930.0,8.494623655913978,16.989247311827956,8.932870564519487,17.865741129038973
1,216,1,../static/images/invador1.png,4,20,8,2.5,right,70,1,825.0,-0.564524535363459,0,0,1,7920.0,934.0,8.4796573875803,67.8372591006424,8.259285458554707,66.07428366843766
1,217,1,../static/images/invador1.png,4,20,8,2.5,right,70,1,801.0,-0.672213080348394,0,0,1,7920.0,936.0,8.461538461538462,67.6923076923077,7.677401162609077,61.419209300872616
1,218,1,../static/images/invador4.png,3,80,8,10.0,right,74,2,978.0,0.121989938915502,1,0,1,7920.0,938.0,8.443496801705757,67.54797441364606,7.136511857763729,57.09209486210983
1,219,1,../static/images/invador3.png,1,80,2,40.0,right,74,2,1075.0,0.557231141562948,0,0,1,8000.0,948.0,8.438818565400844,16.877637130801688,8.404994308393322,16.809988616786644
1,220,1,../static/images/invador1.png,4,20,8,2.5,right,70,1,811.0,-0.627342853271338,0,0,1,8080.0,952.0,8.487394957983193,67.89915966386555,10.599800396060342,84.79840316848274
1,221,1,../static/images/invador1.png,4,20,8,2.5,left,74,1,771.0,-0.806823761579563,0,0,1,8080.0,954.0,8.469601677148846,67.75681341719077,9.85302182525343,78.82417460202744
1,222,1,../static/images/invador1.png,4,20,8,2.5,left,74,1,668.0,-1.26898710047324,0,0,1,8080.0,956.0,8.451882845188285,67.61506276150628,9.158855399296312,73.2708431943705
1,223,1,../static/images/invador2.png,2,20,2,10.0,left,70,2,1190.0,1.0732387529491,0,0,1,8080.0,958.0,8.434237995824635,16.86847599164927,8.513594480245821,17.027188960491642
1,224,1,../static/images/invador2.png,2,20,2,10.0,right,74,2,941.0,-0.0440299012696061,1,0,1,8100.0,962.0,8.41995841995842,16.83991683991684,7.915024583281458,15.830049166562915
1,225,1,../static/images/invador1.png,4,20,8,2.5,left,74,1,752.0,-0.89207719302597,2,0,1,8120.0,966.0,8.405797101449275,67.2463768115942,7.423548431003069,59.38838744802455
1,226,1,../static/images/invador1.png,4,20,8,2.5,left,74,1,764.0,-0.838232920533503,0,0,1,8120.0,968.0,8.388429752066116,67.10743801652893,6.900543593130761,55.20434874504609
1,227,1,../static/images/invador1.png,4,20,8,2.5,left,74,1,824.0,-0.569011558071165,0,0,1,8120.0,970.0,8.371134020618557,66.96907216494846,6.414385562816881,51.31508450253505
1,228,1,../static/images/invador3.png,1,80,2,40.0,right,74,2,1253.0,1.35592118353455,0,0,1,8120.0,972.0,8.353909465020577,16.707818930041153,5.962478403792903,11.924956807585806
1,229,1,../static/images/invador4.png,3,80,8,10.0,right,74,2,712.0,-1.0715581013342,1,0,1,8200.0,976.0,8.401639344262295,67.21311475409836,8.594289720097875,68.754317760783
1,230,1,../static/images/invador1.png,4,20,8,2.5,left,74,1,837.0,-0.510680262870992,0,0,1,8280.0,986.0,8.397565922920892,67.18052738336714,9.366372356877175,74.9309788550174
1,231,1,../static/images/invador2.png,2,20,2,10.0,left,70,2,824.0,-0.569011558071165,1,0,1,8280.0,988.0,8.380566801619434,16.761133603238868,8.706491425070778,17.412982850141557
1,232,1,../static/images/invador1.png,4,20,8,2.5,left,74,1,723.0,-1.02220085154943,0,0,1,8300.0,992.0,8.366935483870968,66.93548387096774,8.073409174136469,64.58727339309175
1,233,1,../static/images/invador4.png,3,80,8,10.0,left,70,2,1111.0,0.718763959040351,1,0,1,8300.0,994.0,8.35010060362173,66.80080482897384,7.50462025931484,60.03696207451872
1,234,1,../static/images/invador3.png,1,80,2,40.0,right,74,2,994.0,0.193782302238792,0,0,1,8380.0,1004.0,8.346613545816734,16.693227091633467,8.647755119801912,17.295510239603825
1,235,1,../static/images/invador1.png,4,20,8,2.5,right,70,1,791.0,-0.717083307425451,0,0,1,8460.0,1008.0,8.392857142857142,67.14285714285714,10.799127408862283,86.39301927089826
1,236,1,../static/images/invador1.png,4,20,8,2.5,right,70,1,955.0,0.0187884166382727,0,0,1,8460.0,1010.0,8.376237623762377,67.00990099009901,10.038305824396476,80.3064465951718
1,237,1,../static/images/invador1.png,4,20,8,2.5,left,70,2,668.0,-1.26898710047324,1,0,1,8460.0,1012.0,8.359683794466402,66.87747035573122,9.331085745077653,74.64868596062122
1,238,1,../static/images/invador1.png,4,20,8,2.5,right,74,2,891.0,-0.268381036654888,1,0,1,8480.0,1022.0,8.297455968688846,66.37964774951077,7.078330292087019,56.62664233669615
1,239,1,../static/images/invador3.png,1,80,2,40.0,left,70,2,695.0,-1.14783748736519,0,0,1,8500.0,1032.0,8.236434108527131,16.472868217054263,5.592678947622389,11.185357895244778
1,240,1,../static/images/invador2.png,2,20,2,10.0,right,74,2,911.0,-0.178640582500775,0,0,1,8580.0,1036.0,8.281853281853282,16.563706563706564,8.290653311459462,16.581306622918923
1,241,1,../static/images/invador1.png,4,20,8,2.5,right,74,2,795.0,-0.699135216594628,1,0,1,8600.0,1040.0,8.26923076923077,66.15384615384616,7.731971161491871,61.85576929193497
1,242,1,../static/images/invador4.png,3,80,8,10.0,right,74,2,827.0,-0.555550489948048,1,0,1,8620.0,1050.0,8.209523809523809,65.67619047619047,6.023743240526084,48.18994592420867
1,243,1,../static/images/invador1.png,4,20,8,2.5,right,74,2,1194.0,1.09118684377992,1,0,1,8700.0,1060.0,8.20754716981132,65.66037735849056,7.671143596775919,61.36914877420735
1,244,1,../static/images/invador1.png,4,20,8,2.5,right,74,2,706.0,-1.09848023758043,1,0,1,8720.0,1070.0,8.149532710280374,65.19626168224299,5.98362856532652,47.86902852261216
1,245,1,../static/images/invador2.png,2,20,2,10.0,left,74,1,980.0,0.130963984330913,2,0,1,8740.0,1080.0,8.092592592592593,16.185185185185187,4.870743022446647,9.741486044893295
1,246,1,../static/images/invador1.png,4,20,8,2.5,right,70,1,788.0,-0.730544375548568,0,0,1,8740.0,1082.0,8.077634011090574,64.62107208872459,4.527588776407981,36.22071021126385
1,247,1,../static/images/invador1.png,4,20,8,2.5,right,70,1,821.0,-0.582472626194282,0,0,1,8740.0,1084.0,8.062730627306273,64.50184501845018,4.208610479712505,33.66888383770004
1,248,1,../static/images/invador1.png,4,20,8,2.5,left,74,1,916.0,-0.156205468962247,0,0,1,8740.0,1086.0,8.047882136279926,64.3830570902394,3.912104885108023,31.296839080864185
1,249,1,../static/images/invador1.png,4,20,8,2.5,right,70,1,810.0,-0.631829875979044,0,0,1,8740.0,1088.0,8.033088235294118,64.26470588235294,3.6364887427480657,29.091909941984525
1,250,1,../static/images/invador3.png,1,80,2,40.0,left,70,2,989.0,0.171347188700264,0,0,1,8740.0,1090.0,8.01834862385321,16.03669724770642,3.3802903461184317,6.760580692236863
1,251,1,../static/images/invador4.png,3,80,8,10.0,right,74,2,926.0,-0.111335241885191,0,0,1,8820.0,1094.0,8.062157221206581,64.49725776965265,6.47409647703438,51.79277181627504
1,252,1,../static/images/invador1.png,4,20,8,2.5,left,74,1,763.0,-0.842719943241208,0,0,1,8900.0,1104.0,8.06159420289855,64.4927536231884,7.968143384486711,63.74514707589369
1,253,1,../static/images/invador1.png,4,20,8,2.5,right,70,1,863.0,-0.394017672470645,0,0,1,8900.0,1106.0,8.047016274864376,64.376130198915,7.406770669311514,59.25416535449211
1,254,1,../static/images/invador1.png,4,20,8,2.5,right,70,1,839.0,-0.50170621745558,0,0,1,8900.0,1108.0,8.032490974729242,64.25992779783394,6.884947860574586,55.07958288459669
1,255,1,../static/images/invador4.png,3,80,8,10.0,left,70,2,1314.0,1.62962956870459,0,0,1,8900.0,1110.0,8.018018018018019,64.14414414414415,6.399888582919607,51.19910866335685
1,256,1,../static/images/invador1.png,4,20,8,2.5,left,74,1,801.0,-0.672213080348394,0,0,1,8980.0,1120.0,8.017857142857142,64.14285714285714,7.919204624837882,63.35363699870305
1,257,1,../static/images/invador2.png,2,20,2,10.0,left,70,2,966.0,0.0681456664230347,1,0,1,8980.0,1122.0,8.003565062388592,16.007130124777184,7.3612797497749565,14.722559499549913
1,258,1,../static/images/invador3.png,1,80,2,40.0,left,70,2,1030.0,0.355315119716195,0,0,1,9000.0,1126.0,7.992895204262878,15.985790408525755,6.968877420155333,13.937754840310665
1,259,1,../static/images/invador4.png,3,80,8,10.0,left,70,2,1347.0,1.77770131805888,0,0,1,9080.0,1130.0,8.035398230088495,64.28318584070796,9.420627828190222,75.36502262552177
1,260,1,../static/images/invador2.png,2,20,2,10.0,right,74,2,762.0,-0.847206965948914,1,0,1,9160.0,1140.0,8.035087719298245,16.07017543859649,9.911327345062862,19.822654690125724
1,261,1,../static/images/invador1.png,4,20,8,2.5,left,70,2,779.0,-0.770927579917918,1,0,1,9180.0,1144.0,8.024475524475525,64.1958041958042,9.062680644498696,72.50144515598957
1,262,1,../static/images/invador1.png,4,20,8,2.5,right,70,1,900.0,-0.227997832285537,2,0,1,9200.0,1154.0,7.972270363951473,63.77816291161179,6.901321998529489,55.21057598823591
1,263,1,../static/images/invador1.png,4,20,8,2.5,left,70,2,748.0,-0.910025283856793,1,0,1,9200.0,1156.0,7.958477508650519,63.667820069204154,6.415109127893202,51.320873023145616
1,264,1,../static/images/invador3.png,1,80,2,40.0,left,70,2,1097.0,0.655945641132472,0,0,1,9220.0,1166.0,7.9073756432247,15.8147512864494,5.155296624142097,10.310593248284194
1,265,1,../static/images/invador1.png,4,20,8,2.5,right,70,1,844.0,-0.479271103917052,2,0,1,9300.0,1170.0,7.948717948717949,63.58974358974359,7.931525693266738,63.452205546133904
1,266,1,../static/images/invador3.png,1,80,2,40.0,left,70,2,1050.0,0.445055573870308,0,0,1,9300.0,1172.0,7.935153583617748,15.870307167235495,7.3727327726248095,14.745465545249619
1,267,1,../static/images/invador1.png,4,20,8,2.5,right,70,1,791.0,-0.717083307425451,0,0,1,9380.0,1176.0,7.976190476190476,63.80952380952381,9.752226987645694,78.01781590116555
1,268,1,../static/images/invador1.png,4,20,8,2.5,left,74,1,641.0,-1.3901367135813,0,0,1,9380.0,1178.0,7.962648556876061,63.70118845500849,9.06516177321718,72.52129418573745
1,269,1,../static/images/invador2.png,2,20,2,10.0,right,74,2,951.0,0.000840325807450209,1,0,1,9380.0,1180.0,7.9491525423728815,15.898305084745763,8.426501770180456,16.853003540360913
1,270,1,../static/images/invador1.png,4,20,8,2.5,right,70,1,847.0,-0.465810035793935,0,0,1,9400.0,1184.0,7.9391891891891895,63.513513513513516,7.843514154421765,62.74811323537412
1,271,1,../static/images/invador1.png,4,20,8,2.5,left,74,1,702.0,-1.11642832841125,0,0,1,9400.0,1186.0,7.925801011804385,63.40640809443508,7.290921834615451,58.32737467692361
1,272,1,../static/images/invador4.png,3,80,8,10.0,right,74,2,1207.0,1.14951813898009,0,0,1,9400.0,1188.0,7.912457912457913,63.2996632996633,6.777260823645595,54.21808658916476
1,273,1,../static/images/invador4.png,3,80,8,10.0,left,70,2,1276.0,1.45912270581178,0,0,1,9480.0,1198.0,7.913188647746244,63.30550918196995,8.168074770087742,65.34459816070193
1,274,1,../static/images/invador1.png,4,20,8,2.5,left,74,1,844.0,-0.479271103917052,0,0,1,9560.0,1208.0,7.913907284768212,63.311258278145694,9.08529133111698,72.68233064893585
1,275,1,../static/images/invador1.png,4,20,8,2.5,left,74,1,654.0,-1.33180541838112,0,0,1,9560.0,1210.0,7.900826446280992,63.20661157024794,8.445213157745185,67.56170526196148
1,276,1,../static/images/invador1.png,4,20,8,2.5,left,74,1,649.0,-1.35424053191965,0,0,1,9560.0,1212.0,7.887788778877888,63.102310231023104,7.850229858395067,62.801838867160534
1,277,1,../static/images/invador3.png,1,80,2,40.0,right,74,2,1181.0,1.03285554857975,0,0,1,9560.0,1214.0,7.874794069192752,15.749588138385503,7.29716440290433,14.59432880580866
1,278,1,../static/images/invador2.png,2,20,2,10.0,left,70,2,1178.0,1.01939448045663,0,0,1,9640.0,1218.0,7.914614121510673,15.829228243021346,9.690179010003437,19.380358020006874
1,279,1,../static/images/invador1.png,4,20,8,2.5,left,74,1,775.0,-0.788875670748741,0,0,1,9660.0,1222.0,7.905073649754501,63.240589198036005,8.881099289758016,71.04879431806413
1,280,1,../static/images/invador1.png,4,20,8,2.5,right,70,1,796.0,-0.694648193886922,0,0,1,9660.0,1224.0,7.892156862745098,63.13725490196079,8.255406881694864,66.04325505355891
1,281,1,../static/images/invador1.png,4,20,8,2.5,left,74,1,598.0,-1.58307869001264,0,0,1,9660.0,1226.0,7.879282218597064,63.03425774877651,7.673795839770623,61.390366718164984
1,282,1,../static/images/invador4.png,3,80,8,10.0,left,70,2,1156.0,0.920679980887104,1,0,1,9660.0,1228.0,7.866449511400652,62.931596091205215,7.133160537617401,57.06528430093921
1,283,1,../static/images/invador3.png,1,80,2,40.0,left,70,2,1193.0,1.08669982107221,0,0,1,9740.0,1238.0,7.867528271405493,15.735056542810986,8.402784173567317,16.805568347134635
2,0,1,../static/images/invador2.png,1,80,2,40.0,left,70,2,1390.0,1.78207659425499,0,0,2,0.0,2.0,0.0,0.0,6.195041460344562,12.390082920689125
2,1,1,../static/images/invador3.png,3,80,8,10.0,left,70,2,1376.0,1.71338659719061,0,0,2,80.0,6.0,13.333333333333334,106.66666666666667,5.9323559911635675,47.45884792930854
2,2,1,../static/images/invador1.png,4,20,8,2.5,right,74,2,1372.0,1.69376088374365,0,0,2,160.0,16.0,10.0,80.0,4.310707111886434,34.48565689509147
2,3,1,../static/images/invador1.png,4,20,8,2.5,left,74,1,1348.0,1.57600660306187,0,0,2,180.0,26.0,6.923076923076923,55.38461538461539,2.56559639700158,20.52477117601264
2,4,1,../static/images/invador1.png,4,20,8,2.5,left,74,1,1272.0,1.20311804756956,0,0,2,180.0,28.0,6.428571428571429,51.42857142857143,2.2640991524124527,18.112793219299622
2,5,1,../static/images/invador1.png,4,20,8,2.5,right,70,1,1112.0,0.418089509691022,1,0,2,180.0,30.0,6.0,48.0,1.9980324956589928,15.984259965271942
2,6,1,../static/images/invador4.png,2,20,2,10.0,left,74,1,22.0,-4.92991740460653,0,0,2,180.0,32.0,5.625,11.25,1.7632327848608518,3.5264655697217036
2,7,1,../static/images/invador1.png,4,20,8,2.5,right,74,2,1406.0,1.86057944804284,0,0,2,180.0,34.0,5.294117647058823,42.35294117647059,1.5560256704347268,12.448205363477815
2,8,1,../static/images/invador3.png,3,80,8,10.0,right,74,2,1432.0,1.9881465854481,0,0,2,200.0,44.0,4.545454545454546,36.36363636363637,1.116056750724132,8.928454005793055
2,9,1,../static/images/invador1.png,4,20,8,2.5,left,70,2,834.0,-0.945897574872942,1,0,2,280.0,54.0,5.185185185185185,41.48148148148148,1.7763245178418257,14.210596142734605
2,10,1,../static/images/invador4.png,2,20,2,10.0,left,70,2,1330.0,1.48769089255053,0,0,2,300.0,64.0,4.6875,9.375,1.2319801052509367,2.4639602105018734
2,11,1,../static/images/invador2.png,1,80,2,40.0,left,70,2,1478.0,2.21384229008818,0,0,2,320.0,68.0,4.705882352941177,9.411764705882353,1.2405422194435138,2.4810844388870277
2,12,1,../static/images/invador1.png,4,20,8,2.5,right,70,1,1460.0,2.12552657957685,0,0,2,400.0,72.0,5.555555555555555,44.44444444444444,2.138881518258505,17.11105214606804
2,13,1,../static/images/invador1.png,4,20,8,2.5,right,74,2,914.0,-0.553383305933672,1,0,2,400.0,74.0,5.405405405405405,43.24324324324324,1.8875298695692544,15.100238956554035
2,14,1,../static/images/invador1.png,4,20,8,2.5,left,74,1,1194.0,0.820416635353773,0,0,2,420.0,84.0,5.0,40.0,1.2904974219110388,10.32397937528831
2,15,1,../static/images/invador1.png,4,20,8,2.5,right,70,1,1082.0,0.270896658838795,0,0,2,420.0,86.0,4.883720930232558,39.06976744186046,1.1388440218243099,9.110752174594479
2,16,1,../static/images/invador4.png,2,20,2,10.0,left,70,2,1332.0,1.49750374927401,0,0,2,420.0,88.0,4.7727272727272725,9.545454545454545,1.0050122410352065,2.010024482070413
2,17,1,../static/images/invador1.png,4,20,8,2.5,right,70,1,1178.0,0.741913781565919,0,0,2,440.0,92.0,4.782608695652174,38.26086956521739,1.066761428043984,8.534091424351873
2,18,1,../static/images/invador3.png,3,80,8,10.0,right,74,2,1246.0,1.0755509101643,0,0,2,440.0,94.0,4.680851063829787,37.4468085106383,0.941400466528327,7.531203732226616
2,19,1,../static/images/invador2.png,1,80,2,40.0,left,74,1,1618.0,2.90074226073191,0,0,2,520.0,104.0,5.0,10.0,1.684418715376369,3.368837430752738
2,20,1,../static/images/invador1.png,4,20,8,2.5,right,70,1,1270.0,1.19330519084608,0,0,2,520.0,106.0,4.90566037735849,39.24528301886792,1.4864734726975688,11.89178778158055
2,21,1,../static/images/invador1.png,4,20,8,2.5,left,74,1,1000.0,-0.131430466823957,0,0,2,520.0,108.0,4.814814814814815,38.51851851851852,1.3117898565617951,10.494318852494361
2,22,1,../static/images/invador1.png,4,20,8,2.5,left,74,1,1162.0,0.663410927778065,0,0,2,520.0,110.0,4.7272727272727275,37.81818181818182,1.15763426619085,9.2610741295268
2,23,1,../static/images/invador2.png,1,80,2,40.0,right,70,1,1770.0,3.64651937171652,0,0,2,520.0,112.0,4.642857142857143,9.285714285714286,1.0215943411635144,2.043188682327029
2,24,1,../static/images/invador3.png,3,80,8,10.0,left,74,1,862.0,-0.808517580744198,2,0,2,520.0,114.0,4.56140350877193,36.49122807017544,0.9015412107067465,7.212329685653972
2,25,1,../static/images/invador1.png,4,20,8,2.5,right,70,1,1390.0,1.78207659425499,0,0,2,520.0,116.0,4.482758620689655,35.86206896551724,0.7955961792788502,6.364769434230801
2,26,1,../static/images/invador4.png,2,20,2,10.0,left,74,1,1364.0,1.65450945684972,0,0,2,520.0,118.0,4.406779661016949,8.813559322033898,0.7021013271117098,1.4042026542234196
2,27,1,../static/images/invador1.png,4,20,8,2.5,left,74,1,1172.0,0.712475211395474,0,0,2,520.0,120.0,4.333333333333333,34.666666666666664,0.6195935656438721,4.956748525150977
2,28,1,../static/images/invador4.png,2,20,2,10.0,right,70,1,1282.0,1.25218233118697,0,0,2,520.0,122.0,4.262295081967213,8.524590163934427,0.546781741841383,1.093563483682766
2,29,1,../static/images/invador1.png,4,20,8,2.5,left,74,1,1052.0,0.123703807986569,0,0,2,520.0,124.0,4.193548387096774,33.54838709677419,0.4825264331149266,3.860211464919413
2,30,1,../static/images/invador3.png,3,80,8,10.0,left,70,2,852.0,-0.857581864361606,1,0,2,520.0,126.0,4.126984126984127,33.01587301587302,0.4258221166466023,3.4065769331728184
2,31,1,../static/images/invador1.png,4,20,8,2.5,right,70,1,746.0,-1.37766327070614,2,0,2,600.0,136.0,4.411764705882353,35.294117647058826,1.4131164705251407,11.304931764201125
2,32,1,../static/images/invador2.png,1,80,2,40.0,right,70,1,1494.0,2.29234514387604,0,0,2,600.0,138.0,4.3478260869565215,8.695652173913043,1.2470534363531371,2.4941068727062743
2,33,1,../static/images/invador1.png,4,20,8,2.5,right,70,1,1168.0,0.692849497948511,0,0,2,600.0,140.0,4.285714285714286,34.285714285714285,1.100505376278183,8.804043010225463
2,34,1,../static/images/invador1.png,4,20,8,2.5,right,74,2,952.0,-0.366939028187519,1,0,2,600.0,142.0,4.225352112676056,33.80281690140845,0.9711789791133101,7.769431832906481
2,35,1,../static/images/invador1.png,4,20,8,2.5,right,70,1,962.0,-0.31787474457011,0,0,2,620.0,152.0,4.078947368421052,32.63157894736842,0.8083048439853926,6.466438751883141
2,36,1,../static/images/invador4.png,2,20,2,10.0,right,70,1,1198.0,0.840042348800737,0,0,2,620.0,154.0,4.025974025974026,8.051948051948052,0.7133165272203491,1.4266330544406982
2,37,1,../static/images/invador1.png,4,20,8,2.5,left,74,1,1006.0,-0.101991896653511,0,0,2,620.0,156.0,3.9743589743589745,31.794871794871796,0.629490806336049,5.035926450688392
2,38,1,../static/images/invador1.png,4,20,8,2.5,left,70,2,972.0,-0.268810460952701,1,0,2,620.0,158.0,3.9240506329113924,31.39240506329114,0.5555159037261472,4.444127229809178
2,39,1,../static/images/invador3.png,3,80,8,10.0,right,74,2,1442.0,2.03721086906551,0,0,2,640.0,168.0,3.8095238095238093,30.476190476190474,0.5895789694792725,4.71663175583418
2,40,1,../static/images/invador1.png,4,20,8,2.5,right,70,1,1112.0,0.418089509691022,0,0,2,720.0,178.0,4.044943820224719,32.359550561797754,1.4992868882579011,11.994295106063209
2,41,1,../static/images/invador2.png,1,80,2,40.0,left,70,2,1444.0,2.04702372578899,0,0,2,720.0,180.0,4.0,8.0,1.3230974976792997,2.6461949953585995
2,42,1,../static/images/invador1.png,4,20,8,2.5,left,74,1,944.0,-0.406190455081446,0,0,2,800.0,184.0,4.3478260869565215,34.78260869565217,2.2020910022777365,17.61672801822189
2,43,1,../static/images/invador1.png,4,20,8,2.5,left,74,1,1112.0,0.418089509691022,0,0,2,800.0,186.0,4.301075268817204,34.40860215053763,1.9433112619034603,15.546490095227682
2,44,1,../static/images/invador4.png,2,20,2,10.0,right,70,1,662.0,-1.78980325309237,2,0,2,800.0,188.0,4.25531914893617,8.51063829787234,1.7149421421433688,3.4298842842867376
2,45,1,../static/images/invador3.png,3,80,8,10.0,left,70,2,1096.0,0.339586655903168,0,0,2,800.0,190.0,4.2105263157894735,33.68421052631579,1.5134099248818076,12.10727939905446
2,46,1,../static/images/invador1.png,4,20,8,2.5,left,74,1,946.0,-0.396377598357964,0,0,2,880.0,200.0,4.4,35.2,1.9854155476968782,15.883324381575026
2,47,1,../static/images/invador2.png,1,80,2,40.0,right,70,1,642.0,-1.88793182032719,2,0,2,880.0,202.0,4.356435643564357,8.712871287128714,1.7520985233610924,3.504197046722185
2,48,1,../static/images/invador1.png,4,20,8,2.5,left,74,1,892.0,-0.661324729891971,0,0,2,880.0,204.0,4.313725490196078,34.509803921568626,1.546199856813455,12.36959885450764
2,49,1,../static/images/invador3.png,3,80,8,10.0,left,70,2,954.0,-0.357126171464037,1,0,2,880.0,206.0,4.271844660194175,34.1747572815534,1.3644974670852108,10.915979736681686
2,50,1,../static/images/invador1.png,4,20,8,2.5,left,74,1,896.0,-0.641699016445008,0,0,2,960.0,216.0,4.444444444444445,35.55555555555556,1.907056392205189,15.256451137641513
2,51,1,../static/images/invador4.png,2,20,2,10.0,left,70,2,812.0,-1.05383899883124,1,0,2,960.0,218.0,4.4036697247706424,8.807339449541285,1.6829477801889272,3.3658955603778544
2,52,1,../static/images/invador1.png,4,20,8,2.5,right,70,1,1128.0,0.496592363478876,0,0,2,980.0,222.0,4.414414414414415,35.31531531531532,1.5858312748660945,12.686650198928756
2,53,1,../static/images/invador2.png,1,80,2,40.0,left,70,2,1108.0,0.398463796244058,0,0,2,980.0,224.0,4.375,8.75,1.3994715807559162,2.7989431615118323
2,54,1,../static/images/invador1.png,4,20,8,2.5,right,70,1,994.0,-0.160869036994402,0,0,2,1060.0,228.0,4.649122807017544,37.19298245614035,2.260567776711551,18.08454221369241
2,55,1,../static/images/invador1.png,4,20,8,2.5,right,70,1,924.0,-0.504319022316263,0,0,2,1060.0,230.0,4.608695652173913,36.869565217391305,1.994916111203275,15.9593288896262
2,56,1,../static/images/invador4.png,2,20,2,10.0,right,70,1,1394.0,1.80170230770195,0,0,2,1060.0,232.0,4.568965517241379,9.137931034482758,1.7604826237626259,3.5209652475252518
2,57,1,../static/images/invador1.png,4,20,8,2.5,right,70,1,1198.0,0.840042348800737,0,0,2,1060.0,234.0,4.52991452991453,36.23931623931624,1.553598695787129,12.428789566297032
2,58,1,../static/images/invador3.png,3,80,8,10.0,right,74,2,1288.0,1.28162090135742,0,0,2,1060.0,236.0,4.491525423728813,35.932203389830505,1.371026828082408,10.968214624659264
2,59,1,../static/images/invador1.png,4,20,8,2.5,right,70,1,988.0,-0.190307607164847,0,0,2,1140.0,246.0,4.634146341463414,37.073170731707314,1.9104922042333514,15.283937633866811
2,60,1,../static/images/invador2.png,1,80,2,40.0,right,74,2,1228.0,0.987235199652963,0,0,2,1140.0,248.0,4.596774193548387,9.193548387096774,1.6859798311810092,3.3719596623620185
2,61,1,../static/images/invador1.png,4,20,8,2.5,right,70,1,916.0,-0.54357044921019,0,0,2,1220.0,252.0,4.841269841269841,38.73015873015873,2.479936411444981,19.83949129155985
2,62,1,../static/images/invador1.png,4,20,8,2.5,left,74,1,1006.0,-0.101991896653511,0,0,2,1220.0,254.0,4.803149606299213,38.425196850393704,2.1885055395897113,17.50804431671769
2,63,1,../static/images/invador2.png,1,80,2,40.0,left,70,2,784.0,-1.19121899295999,1,0,2,1220.0,256.0,4.765625,9.53125,1.9313223011327654,3.8626446022655307
2,64,1,../static/images/invador1.png,4,20,8,2.5,right,70,1,912.0,-0.563196162657154,0,0,2,1300.0,260.0,5.0,40.0,2.667785950142701,21.342287601141607
2,65,1,../static/images/invador1.png,4,20,8,2.5,left,74,1,938.0,-0.435629025251891,0,0,2,1300.0,262.0,4.961832061068702,39.69465648854962,2.3542798530568017,18.834238824454413
2,66,1,../static/images/invador4.png,2,20,2,10.0,left,74,1,1158.0,0.643785214331102,0,0,2,1300.0,264.0,4.924242424242424,9.848484848484848,2.0776155696496854,4.155231139299371
2,67,1,../static/images/invador1.png,4,20,8,2.5,left,74,1,1124.0,0.476966650031912,0,0,2,1300.0,266.0,4.887218045112782,39.097744360902254,1.8334636171847847,14.667708937478277
2,68,1,../static/images/invador3.png,3,80,8,10.0,left,70,2,1006.0,-0.101991896653511,0,0,2,1300.0,268.0,4.850746268656716,38.80597014925373,1.6180032940873295,12.944026352698636
2,69,1,../static/images/invador1.png,4,20,8,2.5,right,70,1,940.0,-0.425816168528409,0,0,2,1380.0,278.0,4.9640287769784175,39.71223021582734,2.040453576094543,16.323628608756344
2,70,1,../static/images/invador1.png,4,20,8,2.5,left,74,1,904.0,-0.602447589551081,0,0,2,1380.0,280.0,4.928571428571429,39.42857142857143,1.8006687324521402,14.405349859617122
2,71,1,../static/images/invador4.png,2,20,2,10.0,left,74,1,730.0,-1.45616612449399,2,0,2,1380.0,282.0,4.8936170212765955,9.787234042553191,1.5890623153685328,3.1781246307370656
2,72,1,../static/images/invador1.png,4,20,8,2.5,right,70,1,1070.0,0.212019518497905,0,0,2,1380.0,284.0,4.859154929577465,38.87323943661972,1.4023229240426196,11.218583392340957
2,73,1,../static/images/invador1.png,4,20,8,2.5,left,74,1,940.0,-0.425816168528409,0,0,2,1380.0,286.0,4.825174825174825,38.6013986013986,1.2375282984666167,9.900226387732934
2,74,1,../static/images/invador3.png,3,80,8,10.0,right,74,2,1046.0,0.0942652378161237,1,0,2,1380.0,288.0,4.791666666666667,38.333333333333336,1.092099589366147,8.736796714929175
2,75,1,../static/images/invador1.png,4,20,8,2.5,right,70,1,916.0,-0.54357044921019,2,0,2,1460.0,298.0,4.899328859060403,39.19463087248322,1.7637180310524259,14.109744248419407
2,76,1,../static/images/invador2.png,1,80,2,40.0,left,70,2,1038.0,0.0550138109221967,0,0,2,1460.0,300.0,4.866666666666666,9.733333333333333,1.556453892696162,3.112907785392324
2,77,1,../static/images/invador1.png,4,20,8,2.5,right,70,1,872.0,-0.759453297126789,2,0,2,1540.0,304.0,5.065789473684211,40.526315789473685,2.3807632523969278,19.046106019175422
2,78,1,../static/images/invador1.png,4,20,8,2.5,left,70,2,952.0,-0.366939028187519,1,0,2,1540.0,306.0,5.032679738562091,40.26143790849673,2.100986760094549,16.80789408075639
2,79,1,../static/images/invador1.png,4,20,8,2.5,left,74,1,928.0,-0.4846933088693,0,0,2,1560.0,316.0,4.936708860759493,39.49367088607595,1.40282047347393,11.22256378779144
2,80,1,../static/images/invador1.png,4,20,8,2.5,right,70,1,792.0,-1.15196756606606,0,0,2,1560.0,318.0,4.90566037735849,39.24528301886792,1.2379673781468927,9.903739025175142
2,81,1,../static/images/invador3.png,3,80,8,10.0,right,74,2,1030.0,0.0157623840282697,0,0,2,1560.0,320.0,4.875,39.0,1.0924870703951648,8.739896563161318
2,82,1,../static/images/invador4.png,2,20,2,10.0,right,70,1,1112.0,0.418089509691022,0,0,2,1640.0,330.0,4.96969696969697,9.93939393939394,1.7639219272653566,3.527843854530713
2,83,1,../static/images/invador2.png,1,80,2,40.0,right,74,2,1112.0,0.418089509691022,0,0,2,1640.0,332.0,4.9397590361445785,9.879518072289157,1.5566338279515344,3.1132676559030688
2,84,1,../static/images/invador1.png,4,20,8,2.5,left,74,1,912.0,-0.563196162657154,0,0,2,1720.0,336.0,5.119047619047619,40.95238095238095,2.380901022081581,19.04720817665265
2,85,1,../static/images/invador1.png,4,20,8,2.5,right,74,2,810.0,-1.06365185555472,1,0,2,1720.0,338.0,5.088757396449704,40.710059171597635,2.101108339711131,16.80886671768905
2,86,1,../static/images/invador4.png,2,20,2,10.0,left,74,1,1066.0,0.192393805050941,0,0,2,1740.0,348.0,5.0,10.0,1.4028844498276973,2.8057688996553947
2,87,1,../static/images/invador2.png,1,80,2,40.0,left,70,2,1110.0,0.40827665296754,0,0,2,1740.0,350.0,4.9714285714285715,9.942857142857143,1.2380238362899225,2.476047672579845
2,88,1,../static/images/invador1.png,4,20,8,2.5,right,70,1,998.0,-0.141243323547438,0,0,2,1820.0,354.0,5.141242937853107,41.12994350282486,2.1369532866165915,17.09562629293273
2,89,1,../static/images/invador3.png,3,80,8,10.0,left,70,2,1020.0,-0.0333018995891391,0,0,2,1820.0,356.0,5.112359550561798,40.89887640449438,1.8858282349585986,15.086625879668789
2,90,1,../static/images/invador1.png,4,20,8,2.5,right,74,2,934.0,-0.455254738698854,1,0,2,1900.0,366.0,5.191256830601093,41.53005464480874,2.1813856142652526,17.45108491412202
2,91,1,../static/images/invador1.png,4,20,8,2.5,left,74,1,1100.0,0.359212369350131,2,0,2,1920.0,376.0,5.1063829787234045,40.851063829787236,1.4451271173137696,11.561016938510157
2,92,1,../static/images/invador2.png,1,80,2,40.0,left,70,2,1142.0,0.565282360543248,0,0,2,1920.0,378.0,5.079365079365079,10.158730158730158,1.2753023372118268,2.5506046744236537
2,93,1,../static/images/invador1.png,4,20,8,2.5,left,74,1,932.0,-0.465067595422336,2,0,2,2000.0,382.0,5.2356020942408374,41.8848167539267,2.1654960383175066,17.323968306540053
2,94,1,../static/images/invador1.png,4,20,8,2.5,right,70,1,1156.0,0.63397235760762,0,0,2,2000.0,384.0,5.208333333333333,41.666666666666664,1.911016772021204,15.288134176169631
2,95,1,../static/images/invador1.png,4,20,8,2.5,left,74,1,1034.0,0.0353880974752332,2,0,2,2000.0,386.0,5.181347150259067,41.45077720207254,1.68644275414319,13.49154203314552
2,96,1,../static/images/invador4.png,2,20,2,10.0,left,74,1,754.0,-1.33841184381221,2,0,2,2000.0,388.0,5.154639175257732,10.309278350515465,1.4882596556146346,2.976519311229269
2,97,1,../static/images/invador3.png,3,80,8,10.0,right,70,1,718.0,-1.51504326483488,2,0,2,2000.0,390.0,5.128205128205129,41.02564102564103,1.3133661353690573,10.506929082952459
2,98,1,../static/images/invador1.png,4,20,8,2.5,left,70,2,918.0,-0.533757592486709,1,0,2,2000.0,392.0,5.1020408163265305,40.816326530612244,1.159025307866641,9.272202462933128
2,99,1,../static/images/invador1.png,4,20,8,2.5,left,74,1,882.0,-0.71038901350938,0,0,2,2020.0,402.0,5.024875621890548,40.19900497512438,0.9071513736923353,7.257210989538683
2,100,1,../static/images/invador2.png,1,80,2,40.0,right,74,2,978.0,-0.239371890782256,0,0,2,2020.0,404.0,5.0,10.0,0.8005470613721569,1.6010941227443138
2,101,1,../static/images/invador1.png,4,20,8,2.5,right,70,1,924.0,-0.504319022316263,0,0,2,2100.0,408.0,5.147058823529412,41.1764705882353,1.8019937079695345,14.415949663756276
2,102,1,../static/images/invador1.png,4,20,8,2.5,left,74,1,978.0,-0.239371890782256,2,0,2,2100.0,410.0,5.121951219512195,40.97560975609756,1.5902315857765386,12.721852686212308
2,103,1,../static/images/invador3.png,3,80,8,10.0,left,70,2,894.0,-0.651511873168489,0,0,2,2100.0,412.0,5.097087378640777,40.77669902912621,1.4033547870990226,11.226838296792181
2,104,1,../static/images/invador4.png,2,20,2,10.0,right,70,1,1040.0,0.0648266676456784,0,0,2,2180.0,422.0,5.165876777251185,10.33175355450237,1.9275034845842005,3.855006969168401
2,105,1,../static/images/invador1.png,4,20,8,2.5,left,74,1,866.0,-0.788891867297234,0,0,2,2180.0,424.0,5.1415094339622645,41.132075471698116,1.700992023070903,13.607936184567224
2,106,1,../static/images/invador2.png,1,80,2,40.0,right,74,2,1126.0,0.486779506755394,0,0,2,2180.0,426.0,5.117370892018779,10.234741784037558,1.5010991604899744,3.0021983209799488
2,107,1,../static/images/invador1.png,4,20,8,2.5,right,70,1,956.0,-0.347313314740555,0,0,2,2260.0,430.0,5.255813953488372,42.04651162790697,2.3383802075383966,18.707041660307173
2,108,1,../static/images/invador3.png,3,80,8,10.0,left,70,2,930.0,-0.474880452145818,0,0,2,2260.0,432.0,5.231481481481482,41.851851851851855,2.0635843783118935,16.508675026495148
2,109,1,../static/images/invador1.png,4,20,8,2.5,left,74,1,930.0,-0.474880452145818,0,0,2,2340.0,442.0,5.294117647058823,42.35294117647059,2.274922592183175,18.1993807374654
2,110,1,../static/images/invador4.png,2,20,2,10.0,right,70,1,858.0,-0.828143294191161,2,0,2,2340.0,444.0,5.27027027027027,10.54054054054054,2.007584013910156,4.015168027820312
2,111,1,../static/images/invador1.png,4,20,8,2.5,right,70,1,990.0,-0.180494750441365,0,0,2,2340.0,446.0,5.246636771300448,41.973094170403584,1.7716618520368055,14.173294816294444
2,112,1,../static/images/invador1.png,4,20,8,2.5,left,70,2,1136.0,0.535843790372802,1,0,2,2340.0,448.0,5.223214285714286,41.785714285714285,1.5634641918915735,12.507713535132588
2,113,1,../static/images/invador3.png,3,80,8,10.0,left,70,2,1000.0,-0.131430466823957,0,0,2,2360.0,458.0,5.152838427947598,41.222707423580786,1.1199709716569533,8.959767773255626
2,114,1,../static/images/invador1.png,4,20,8,2.5,left,70,2,834.0,-0.945897574872942,1,0,2,2440.0,468.0,5.213675213675214,41.70940170940171,1.7783842182271539,14.227073745817231
2,115,1,../static/images/invador4.png,2,20,2,10.0,left,74,1,1112.0,0.418089509691022,0,0,2,2460.0,478.0,5.146443514644352,10.292887029288703,1.2330639392373497,2.4661278784746994
2,116,1,../static/images/invador2.png,1,80,2,40.0,right,70,1,786.0,-1.1814061362365,2,0,2,2460.0,480.0,5.125,10.25,1.0881598613719616,2.1763197227439233
2,117,1,../static/images/invador1.png,4,20,8,2.5,right,70,1,998.0,-0.141243323547438,0,0,2,2460.0,482.0,5.1037344398340245,40.829875518672196,0.9602842530886174,7.682274024708939
2,118,1,../static/images/invador1.png,4,20,8,2.5,right,70,1,854.0,-0.847769007638125,0,0,2,2460.0,484.0,5.082644628099174,40.66115702479339,0.8474360059259254,6.779488047407403
2,119,1,../static/images/invador1.png,4,20,8,2.5,right,70,1,1190.0,0.80079092190681,0,0,2,2460.0,486.0,5.061728395061729,40.49382716049383,0.7478491726068246,5.982793380854597
2,120,1,../static/images/invador2.png,1,80,2,40.0,right,74,2,1090.0,0.310148085732722,1,0,2,2460.0,488.0,5.040983606557377,10.081967213114755,0.6599653319634838,1.3199306639269677
2,121,1,../static/images/invador1.png,4,20,8,2.5,left,74,1,1058.0,0.153142378157014,0,0,2,2540.0,492.0,5.162601626016261,41.300813008130085,1.6943555439617304,13.554844351693843
2,122,1,../static/images/invador1.png,4,20,8,2.5,right,70,1,844.0,-0.896833291255533,0,0,2,2540.0,494.0,5.1417004048583,41.1336032388664,1.4952425702859806,11.961940562287845
2,123,1,../static/images/invador3.png,3,80,8,10.0,right,74,2,1010.0,-0.0823661832065479,1,0,2,2540.0,496.0,5.120967741935484,40.96774193548387,1.3195284496002593,10.556227596802074
2,124,2,../static/images/invador1.png,4,20,8,2.5,right,70,1,1082.0,0.270896658838795,0,0,2,2620.0,506.0,5.177865612648222,41.42292490118577,1.8833932663287434,15.067146130629947
2,125,2,../static/images/invador1.png,4,20,8,2.5,right,74,2,1352.0,1.59563231650883,0,0,2,2620.0,508.0,5.15748031496063,41.25984251968504,1.6620654374701331,13.296523499761065
2,126,2,../static/images/invador1.png,4,20,8,2.5,left,74,1,1248.0,1.08536376688778,0,0,2,2640.0,518.0,5.096525096525096,40.77220077220077,1.171855887454382,9.374847099635057
2,127,2,../static/images/invador1.png,4,20,8,2.5,right,70,1,960.0,-0.327687601293592,2,0,2,2640.0,520.0,5.076923076923077,40.61538461538461,1.0341447020411354,8.273157616329083
2,128,2,../static/images/invador1.png,4,20,8,2.5,left,74,1,1286.0,1.27180804463393,0,0,2,2640.0,522.0,5.057471264367816,40.45977011494253,0.9126167101339756,7.300933681071805
2,129,2,../static/images/invador1.png,4,20,8,2.5,left,74,1,1058.0,0.153142378157014,0,0,2,2640.0,524.0,5.038167938931298,40.30534351145038,0.8053701362796631,6.442961090237305
2,130,2,../static/images/invador1.png,4,20,8,2.5,left,74,1,1104.0,0.378838082797095,0,0,2,2640.0,526.0,5.019011406844107,40.152091254752854,0.7107266930449949,5.685813544359959
2,131,2,../static/images/invador1.png,4,20,8,2.5,left,74,1,1018.0,-0.0431147563126208,0,0,2,2640.0,528.0,5.0,40.0,0.6272053177189925,5.01764254175194
2,132,2,../static/images/invador1.png,4,20,8,2.5,left,70,2,1152.0,0.614346644160657,1,0,2,2640.0,530.0,4.981132075471698,39.84905660377358,0.5534989953586529,4.427991962869223
2,133,2,../static/images/invador1.png,4,20,8,2.5,left,74,1,1076.0,0.24145808866835,0,0,2,2660.0,540.0,4.925925925925926,39.407407407407405,0.5885176530607572,4.708141224486058
2,134,2,../static/images/invador1.png,4,20,8,2.5,left,74,1,1048.0,0.104078094539605,0,0,2,2660.0,542.0,4.907749077490775,39.2619926199262,0.5193577294666764,4.154861835733411
2,135,2,../static/images/invador1.png,4,20,8,2.5,left,74,1,1254.0,1.11480233705823,0,0,2,2660.0,544.0,4.889705882352941,39.11764705882353,0.4583251662103241,3.666601329682593
2,136,2,../static/images/invador1.png,4,20,8,2.5,left,70,2,1074.0,0.231645231944868,1,0,2,2660.0,546.0,4.871794871794871,38.97435897435897,0.40446487279092175,3.235718982327374
2,137,2,../static/images/invador1.png,4,20,8,2.5,right,74,2,998.0,-0.141243323547438,1,0,2,2680.0,556.0,4.820143884892087,38.56115107913669,0.5100944764061633,4.080755811249307
2,138,2,../static/images/invador1.png,4,20,8,2.5,left,74,1,1274.0,1.21293090429304,0,0,2,2700.0,566.0,4.770318021201414,38.16254416961131,0.5656777812329362,4.52542224986349
2,139,2,../static/images/invador1.png,4,20,8,2.5,left,74,1,920.0,-0.523944735763227,2,0,2,2700.0,568.0,4.753521126760563,38.028169014084504,0.49920189571706003,3.9936151657364802
2,140,2,../static/images/invador1.png,4,20,8,2.5,right,70,1,960.0,-0.327687601293592,0,0,2,2700.0,570.0,4.7368421052631575,37.89473684210526,0.4405379545654971,3.524303636523977
2,141,2,../static/images/invador1.png,4,20,8,2.5,right,70,1,1094.0,0.329773799179686,0,0,2,2700.0,572.0,4.72027972027972,37.76223776223776,0.38876793353114586,3.110143468249167
2,142,2,../static/images/invador1.png,4,20,8,2.5,left,74,1,980.0,-0.229559034058774,0,0,2,2700.0,574.0,4.70383275261324,37.63066202090592,0.3430816904099613,2.7446535232796903
2,143,2,../static/images/invador1.png,4,20,8,2.5,left,74,1,942.0,-0.416003311804927,2,0,2,2700.0,576.0,4.6875,37.5,0.3027642872328786,2.422114297863029
2,144,2,../static/images/invador1.png,4,20,8,2.5,left,70,2,1510.0,2.37084799766389,0,0,2,2700.0,578.0,4.671280276816609,37.37024221453287,0.26718480229620417,2.1374784183696334
2,145,2,../static/images/invador1.png,4,20,8,2.5,left,74,1,1188.0,0.790978065183328,0,0,2,2720.0,588.0,4.625850340136054,37.006802721088434,0.43785639405244214,3.502851152419537
2,146,2,../static/images/invador1.png,4,20,8,2.5,right,70,1,1016.0,-0.0529276130361026,0,0,2,2720.0,590.0,4.610169491525424,36.88135593220339,0.3864014978392943,3.0912119827143543
2,147,2,../static/images/invador1.png,4,20,8,2.5,left,74,1,936.0,-0.445441881975373,2,0,2,2720.0,592.0,4.594594594594595,36.75675675675676,0.3409933475005225,2.72794678000418
2,148,2,../static/images/invador1.png,4,20,8,2.5,right,70,1,874.0,-0.749640440403307,2,0,2,2720.0,594.0,4.579124579124579,36.63299663299663,0.3009213569041906,2.4073708552335247
2,149,2,../static/images/invador1.png,4,20,8,2.5,right,70,1,994.0,-0.160869036994402,2,0,2,2720.0,596.0,4.563758389261745,36.51006711409396,0.2655584447755847,2.1244675582046777
2,150,2,../static/images/invador1.png,4,20,8,2.5,right,74,2,1136.0,0.535843790372802,1,0,2,2720.0,598.0,4.548494983277592,36.38795986622073,0.23435122158538024,1.874809772683042
2,151,2,../static/images/invador1.png,4,20,8,2.5,right,74,2,1366.0,1.6643223135732,0,0,2,2740.0,608.0,4.506578947368421,36.05263157894737,0.42057905074391483,3.3646324059513186
2,152,2,../static/images/invador1.png,4,20,8,2.5,left,70,2,1224.0,0.967609486206,0,0,2,2760.0,618.0,4.466019417475728,35.728155339805824,0.5185739105282169,4.148591284225735
2,153,2,../static/images/invador1.png,4,20,8,2.5,left,70,2,970.0,-0.278623317676183,0,0,2,2780.0,628.0,4.426751592356688,35.4140127388535,0.5701397403375202,4.561117922700162
2,154,2,../static/images/invador1.png,4,20,8,2.5,left,74,1,710.0,-1.55429469172881,2,0,2,2800.0,638.0,4.38871473354232,35.10971786833856,0.59727417177377,4.77819337419016
2,155,2,../static/images/invador1.png,4,20,8,2.5,left,74,1,924.0,-0.504319022316263,2,0,2,2800.0,640.0,4.375,35.0,0.5270852218420891,4.2166817747367125
2,156,2,../static/images/invador1.png,4,20,8,2.5,left,70,2,1050.0,0.113890951263087,1,0,2,2800.0,642.0,4.361370716510903,34.890965732087224,0.4651445587530846,3.7211564700246766
2,157,2,../static/images/invador1.png,4,20,8,2.5,left,70,2,1120.0,0.457340936584949,0,0,2,2820.0,652.0,4.325153374233129,34.60122699386503,0.5420247058701797,4.336197646961438
2,158,0,../static/images/invador1.png,4,20,8,2.5,left,70,2,1272.0,1.20311804756956,0,0,2,2840.0,662.0,4.290030211480363,34.3202416918429,0.582479772500005,4.65983818000004
2,159,0,../static/images/invador2.png,1,80,2,40.0,left,70,2,1356.0,1.6152580299558,0,0,2,2860.0,672.0,4.255952380952381,8.511904761904763,0.6037676143862972,1.2075352287725944
2,160,0,../static/images/invador4.png,2,20,2,10.0,left,74,1,1300.0,1.34049804169831,0,0,2,2940.0,676.0,4.349112426035503,8.698224852071005,1.6513270567829104,3.3026541135658207
2,161,0,../static/images/invador2.png,1,80,2,40.0,left,74,1,992.0,-0.170681893717884,2,0,2,2940.0,678.0,4.336283185840708,8.672566371681416,1.4572705956351697,2.9145411912703394
2,162,0,../static/images/invador1.png,4,20,8,2.5,right,70,1,1196.0,0.830229492077255,0,0,2,2940.0,680.0,4.323529411764706,34.588235294117645,1.2860187690742013,10.28815015259361
2,163,0,../static/images/invador2.png,1,80,2,40.0,right,74,2,1314.0,1.40918803876268,0,0,2,2940.0,682.0,4.310850439882698,8.621700879765395,1.1348916799424442,2.2697833598848884
2,164,0,../static/images/invador2.png,1,80,2,40.0,right,74,2,1244.0,1.06573805344082,0,0,2,3020.0,686.0,4.402332361516035,8.80466472303207,2.057988857838384,4.115977715676768
2,165,0,../static/images/invador2.png,1,80,2,40.0,right,74,2,1452.0,2.08627515268292,0,0,2,3100.0,690.0,4.492753623188406,8.985507246376812,2.7647697876750197,5.529539575350039
2,166,0,../static/images/invador3.png,3,80,8,10.0,right,74,2,1020.0,-0.0333018995891391,0,0,2,3180.0,694.0,4.582132564841499,36.65706051873199,3.3059254695928915,26.44740375674313
2,167,0,../static/images/invador4.png,2,20,2,10.0,left,74,1,882.0,-0.71038901350938,2,0,2,3260.0,704.0,4.630681818181818,9.261363636363637,2.9286543227975024,5.857308645595005
2,168,0,../static/images/invador4.png,2,20,2,10.0,right,70,1,634.0,-1.92718324722112,2,0,2,3260.0,706.0,4.61756373937677,9.23512747875354,2.5844921585110905,5.168984317022181
2,169,0,../static/images/invador1.png,4,20,8,2.5,left,74,1,1124.0,0.476966650031912,0,0,2,3260.0,708.0,4.604519774011299,36.836158192090394,2.28077436978798,18.24619495830384
2,170,0,../static/images/invador2.png,1,80,2,40.0,right,74,2,1110.0,0.40827665296754,0,0,2,3260.0,710.0,4.591549295774648,9.183098591549296,2.012748117169199,4.025496234338398
2,171,0,../static/images/invador3.png,3,80,8,10.0,left,70,2,1000.0,-0.131430466823957,0,0,2,3340.0,714.0,4.677871148459384,37.42296918767507,2.7301306472656135,21.841045178124908
2,172,0,../static/images/invador2.png,1,80,2,40.0,right,74,2,1234.0,1.01667376982341,0,0,2,3420.0,724.0,4.723756906077348,9.447513812154696,2.6256655958524306,5.251331191704861
2,173,0,../static/images/invador2.png,1,80,2,40.0,right,74,2,970.0,-0.278623317676183,0,0,2,3500.0,728.0,4.8076923076923075,9.615384615384615,3.199418600766101,6.398837201532202
2,174,0,../static/images/invador2.png,1,80,2,40.0,right,74,2,896.0,-0.641699016445008,1,0,2,3580.0,732.0,4.890710382513661,9.781420765027322,3.638719783804884,7.277439567609768
2,175,0,../static/images/invador2.png,1,80,2,40.0,left,70,2,916.0,-0.54357044921019,0,0,2,3660.0,736.0,4.9728260869565215,9.945652173913043,3.975076243407761,7.950152486815522
2,176,0,../static/images/invador3.png,3,80,8,10.0,right,74,0,NaN,NaN,0,1,2,3740.0,740.0,5.054054054054054,40.432432432432435,4.232611784591573,33.86089427673259
2,177,0,../static/images/invador4.png,2,20,2,10.0,right,70,1,1096.0,0.339586655903168,0,0,2,3740.0,750.0,4.986666666666666,9.973333333333333,2.2653951288351157,4.5307902576702315
2,178,0,../static/images/invador1.png,4,20,8,2.5,right,70,1,1104.0,0.378838082797095,0,0,2,3740.0,752.0,4.973404255319149,39.787234042553195,1.999176174814267,15.993409398514135
2,179,0,../static/images/invador2.png,1,80,2,40.0,left,70,2,1044.0,0.0844523810926419,1,0,2,3740.0,754.0,4.960212201591512,9.920424403183024,1.764242064032398,3.528484128064796
2,180,0,../static/images/invador2.png,1,80,2,40.0,left,70,2,972.0,-0.268810460952701,0,0,2,3820.0,758.0,5.03957783641161,10.07915567282322,2.5398588714311296,5.079717742862259
2,181,0,../static/images/invador2.png,1,80,2,40.0,right,74,2,1010.0,-0.0823661832065479,0,0,2,3900.0,762.0,5.118110236220472,10.236220472440944,3.1337196062019985,6.267439212403997
2,182,0,../static/images/invador2.png,1,80,2,40.0,left,70,2,1076.0,0.24145808866835,0,0,2,3980.0,766.0,5.195822454308094,10.391644908616188,3.5884165247556146,7.176833049511229
2,183,0,../static/images/invador2.png,1,80,2,40.0,right,74,2,986.0,-0.200120463888329,0,0,2,4060.0,770.0,5.2727272727272725,10.545454545454545,3.9365609223169793,7.873121844633959
2,184,0,../static/images/invador2.png,1,80,2,40.0,left,70,2,980.0,-0.229559034058774,0,0,2,4140.0,774.0,5.348837209302325,10.69767441860465,4.203122046018709,8.406244092037419
2,185,0,../static/images/invador2.png,1,80,2,40.0,left,70,2,1012.0,-0.0725533264830661,0,0,2,4220.0,778.0,5.4241645244215935,10.848329048843187,4.4072179130406814,8.814435826081363
2,186,0,../static/images/invador3.png,3,80,8,10.0,left,70,2,970.0,-0.278623317676183,0,0,2,4300.0,782.0,5.498721227621483,43.989769820971865,4.563486472975403,36.507891783803224
2,187,0,../static/images/invador1.png,4,20,8,2.5,right,74,2,830.0,-0.965523288319906,1,0,2,4380.0,792.0,5.53030303030303,44.24242424242424,3.590394916314096,28.723159330512768
2,188,0,../static/images/invador4.png,2,20,2,10.0,right,70,1,1072.0,0.221832375221386,0,0,2,4400.0,802.0,5.486284289276808,10.972568578553616,2.1865612499723786,4.373122499944757
2,189,0,../static/images/invador1.png,4,20,8,2.5,right,70,1,1044.0,0.0844523810926419,0,0,2,4400.0,804.0,5.472636815920398,43.78109452736319,1.9296064956070824,15.43685196485666
2,190,0,../static/images/invador4.png,2,20,2,10.0,left,74,1,946.0,-0.396377598357964,0,0,2,4400.0,806.0,5.459057071960298,10.918114143920596,1.7028478977829138,3.4056957955658276
2,191,0,../static/images/invador2.png,1,80,2,40.0,right,74,2,1248.0,1.08536376688778,0,0,2,4400.0,808.0,5.445544554455446,10.891089108910892,1.5027369412287368,3.0054738824574736
2,192,0,../static/images/invador2.png,1,80,2,40.0,left,70,2,834.0,-0.945897574872942,1,0,2,4480.0,812.0,5.517241379310345,11.03448275862069,2.339634194898698,4.679268389797396
2,193,0,../static/images/invador2.png,1,80,2,40.0,right,74,2,980.0,-0.229559034058774,0,0,2,4560.0,816.0,5.588235294117647,11.176470588235293,2.9804150718100804,5.960830143620161
2,194,0,../static/images/invador2.png,1,80,2,40.0,left,70,2,830.0,-0.965523288319906,0,0,2,4640.0,820.0,5.658536585365853,11.317073170731707,3.471036985569214,6.942073971138428
2,195,0,../static/images/invador3.png,3,80,8,10.0,right,70,1,678.0,-1.71130039930452,2,0,2,4720.0,824.0,5.728155339805825,45.8252427184466,3.846687806206866,30.773502449654927
2,196,0,../static/images/invador2.png,1,80,2,40.0,left,70,2,1094.0,0.329773799179686,1,0,2,4720.0,826.0,5.714285714285714,11.428571428571429,3.394642513454901,6.789285026909802
2,197,0,../static/images/invador2.png,1,80,2,40.0,left,74,1,612.0,-2.03512467117942,2,0,2,4800.0,830.0,5.783132530120482,11.566265060240964,3.788195420650662,7.576390841301324
2,198,0,../static/images/invador4.png,2,20,2,10.0,right,70,1,884.0,-0.700576156785898,0,0,2,4800.0,832.0,5.769230769230769,11.538461538461538,3.3430238875809493,6.6860477751618985
2,199,0,../static/images/invador1.png,4,20,8,2.5,left,70,2,670.0,-1.75055182619845,1,0,2,4800.0,834.0,5.755395683453237,46.0431654676259,2.950166892661858,23.601335141294864
2,200,0,../static/images/invador2.png,1,80,2,40.0,right,74,2,1028.0,0.00594952730478791,0,0,2,4820.0,844.0,5.710900473933649,11.421800947867299,1.849667157981581,3.699334315963162
2,201,0,../static/images/invador2.png,1,80,2,40.0,right,74,2,888.0,-0.680950443338935,0,0,2,4900.0,848.0,5.778301886792453,11.556603773584905,2.605265665838632,5.210531331677264
2,202,0,../static/images/invador3.png,3,80,8,10.0,left,70,2,902.0,-0.612260446274562,0,0,2,4980.0,852.0,5.845070422535211,46.76056338028169,3.183799138537195,25.47039310829756
2,203,0,../static/images/invador2.png,1,80,2,40.0,left,70,2,930.0,-0.474880452145818,0,0,2,5060.0,862.0,5.870069605568445,11.74013921113689,2.8643902826599454,5.728780565319891
2,204,0,../static/images/invador2.png,1,80,2,40.0,left,70,2,930.0,-0.474880452145818,0,0,2,5140.0,866.0,5.935334872979214,11.870669745958429,3.3822011508128473,6.764402301625695
2,205,0,../static/images/invador1.png,4,20,8,2.5,left,70,2,746.0,-1.37766327070614,1,0,2,5220.0,870.0,6.0,48.0,3.7786695353298687,30.22935628263895
2,206,0,../static/images/invador2.png,1,80,2,40.0,right,74,2,856.0,-0.837956150914643,0,0,2,5240.0,880.0,5.954545454545454,11.909090909090908,2.285633150100083,4.571266300200166
2,207,0,../static/images/invador2.png,1,80,2,40.0,left,70,2,928.0,-0.4846933088693,0,0,2,5320.0,884.0,6.018099547511312,12.036199095022624,2.9390684946903116,5.878136989380623
2,208,0,../static/images/invador3.png,3,80,8,10.0,left,74,1,798.0,-1.12252899589561,2,0,2,5400.0,888.0,6.081081081081081,48.648648648648646,3.439379460313984,27.515035682511872
2,209,0,../static/images/invador4.png,2,20,2,10.0,right,70,1,1004.0,-0.111804753376993,0,0,2,5400.0,890.0,6.067415730337078,12.134831460674157,3.035199195798097,6.070398391596194
2,210,0,../static/images/invador2.png,1,80,2,40.0,right,74,2,930.0,-0.474880452145818,1,0,2,5400.0,892.0,6.053811659192825,12.10762331838565,2.678516361591693,5.357032723183386
2,211,0,../static/images/invador1.png,4,20,8,2.5,right,70,1,998.0,-0.141243323547438,2,0,2,5480.0,896.0,6.116071428571429,48.92857142857143,3.239884452299649,25.91907561839719
2,212,0,../static/images/invador2.png,1,80,2,40.0,left,70,2,1028.0,0.00594952730478791,1,0,2,5480.0,898.0,6.102449888641425,12.20489977728285,2.8591479357153933,5.7182958714307865
2,213,0,../static/images/invador2.png,1,80,2,40.0,right,74,2,1060.0,0.162955234880496,0,0,2,5560.0,902.0,6.164079822616408,12.328159645232816,3.37818728213605,6.7563745642721
2,214,0,../static/images/invador3.png,3,80,8,10.0,left,70,2,974.0,-0.258997604229219,0,0,2,5640.0,906.0,6.225165562913907,49.80132450331126,3.775596266443817,30.204770131550536
2,215,0,../static/images/invador2.png,1,80,2,40.0,right,70,1,674.0,-1.73092611275148,2,0,2,5720.0,916.0,6.244541484716157,12.489082969432314,3.175799575417114,6.351599150834228
2,216,0,../static/images/invador4.png,2,20,2,10.0,right,70,1,948.0,-0.386564741634482,0,0,2,5720.0,918.0,6.230936819172113,12.461873638344226,2.8025940227141994,5.605188045428399
2,217,0,../static/images/invador3.png,3,80,8,10.0,left,70,2,1062.0,0.172768091603978,1,0,2,5720.0,920.0,6.217391304347826,49.73913043478261,2.4732458927675665,19.78596714214053
2,218,0,../static/images/invador4.png,2,20,2,10.0,right,70,1,944.0,-0.406190455081446,2,0,2,5800.0,930.0,6.236559139784946,12.473118279569892,2.4904903880894116,4.980980776178823
2,219,0,../static/images/invador2.png,1,80,2,40.0,left,70,2,1044.0,0.0844523810926419,0,0,2,5800.0,932.0,6.223175965665236,12.446351931330472,2.1978192607982234,4.395638521596447
2,220,0,../static/images/invador1.png,4,20,8,2.5,right,70,1,1004.0,-0.111804753376993,0,0,2,5880.0,936.0,6.282051282051282,50.256410256410255,2.8718326891656885,22.974661513325508
2,221,0,../static/images/invador2.png,1,80,2,40.0,right,70,1,752.0,-1.34822470053569,2,0,2,5880.0,938.0,6.268656716417911,12.537313432835822,2.5343479453780997,5.068695890756199
2,222,0,../static/images/invador2.png,1,80,2,40.0,left,74,1,968.0,-0.288436174399665,2,0,2,5880.0,940.0,6.25531914893617,12.51063829787234,2.236522877002334,4.473045754004668
2,223,0,../static/images/invador2.png,1,80,2,40.0,left,70,2,1286.0,1.27180804463393,0,0,2,5880.0,942.0,6.24203821656051,12.48407643312102,1.9736968589798523,3.9473937179597045
2,224,0,../static/images/invador1.png,4,20,8,2.5,right,74,2,1090.0,0.310148085732722,1,0,2,5960.0,946.0,6.3002114164904865,50.40169133192389,2.700230561732616,21.601844493860927
2,225,0,../static/images/invador2.png,1,80,2,40.0,left,70,2,1072.0,0.221832375221386,0,0,2,5980.0,956.0,6.2552301255230125,12.510460251046025,1.7181482769685628,3.4362965539371255
2,226,0,../static/images/invador4.png,2,20,2,10.0,left,74,1,1074.0,0.231645231944868,0,0,2,6060.0,960.0,6.3125,12.625,2.5045665853525105,5.009133170705021
2,227,0,../static/images/invador2.png,1,80,2,40.0,left,70,2,990.0,-0.180494750441365,0,0,2,6060.0,962.0,6.299376299376299,12.598752598752599,2.2102412872439334,4.420482574487867
2,228,0,../static/images/invador2.png,1,80,2,40.0,right,74,2,960.0,-0.327687601293592,0,0,2,6140.0,966.0,6.3561076604554865,12.712215320910973,2.881343769485278,5.762687538970556
2,229,0,../static/images/invador2.png,1,80,2,40.0,right,74,2,1008.0,-0.0921790399300296,1,0,2,6220.0,970.0,6.412371134020619,12.824742268041238,3.395181800596323,6.790363601192646
2,230,0,../static/images/invador3.png,3,80,8,10.0,left,70,2,924.0,-0.504319022316263,1,0,2,6300.0,974.0,6.468172484599589,51.74537987679671,3.788608332613119,30.30886666090495
2,231,0,../static/images/invador2.png,1,80,2,40.0,right,74,2,1002.0,-0.121617610100475,1,0,2,6380.0,984.0,6.483739837398374,12.967479674796747,3.1826466487333116,6.365293297466623
2,232,0,../static/images/invador2.png,1,80,2,40.0,right,74,2,942.0,-0.416003311804927,0,0,2,6460.0,988.0,6.538461538461538,13.076923076923077,3.625878128411754,7.251756256823508
2,233,0,../static/images/invador3.png,3,80,8,10.0,left,70,2,854.0,-0.847769007638125,0,0,2,6540.0,992.0,6.592741935483871,52.74193548387097,3.965243868922459,31.72195095137967
2,234,0,../static/images/invador4.png,2,20,2,10.0,right,70,1,926.0,-0.494506165592781,0,0,2,6620.0,1002.0,6.606786427145709,13.213572854291417,3.275593952537317,6.551187905074634
2,235,0,../static/images/invador2.png,1,80,2,40.0,right,74,2,1028.0,0.00594952730478791,0,0,2,6620.0,1004.0,6.5936254980079685,13.187250996015937,2.8906610175530774,5.781322035106155
2,236,0,../static/images/invador1.png,4,20,8,2.5,right,70,1,918.0,-0.533757592486709,0,0,2,6700.0,1008.0,6.646825396825397,53.17460317460318,3.4023156684171387,27.21852534733711
2,237,0,../static/images/invador2.png,1,80,2,40.0,right,74,2,964.0,-0.308061887846628,0,0,2,6700.0,1010.0,6.633663366336633,13.267326732673267,3.0024909725105555,6.004981945021111
2,238,0,../static/images/invador4.png,2,20,2,10.0,right,70,1,856.0,-0.837956150914643,0,0,2,6780.0,1014.0,6.686390532544379,13.372781065088757,3.487939675770941,6.975879351541882
2,239,0,../static/images/invador1.png,4,20,8,2.5,right,70,1,1068.0,0.202206661774423,0,0,2,6780.0,1016.0,6.673228346456693,53.38582677165354,3.0780528351256056,24.624422681004845
2,240,0,../static/images/invador2.png,1,80,2,40.0,left,70,2,940.0,-0.425816168528409,0,0,2,6780.0,1018.0,6.660117878192534,13.320235756385069,2.71633403571713,5.43266807143426
2,241,0,../static/images/invador2.png,1,80,2,40.0,left,70,2,1052.0,0.123703807986569,0,0,2,6860.0,1022.0,6.712328767123288,13.424657534246576,3.268840028725047,6.537680057450094
2,242,0,../static/images/invador3.png,3,80,8,10.0,right,74,2,892.0,-0.661324729891971,0,0,2,6940.0,1026.0,6.764132553606238,54.113060428849906,3.6918731706619954,29.534985365295963
2,243,0,../static/images/invador2.png,1,80,2,40.0,left,74,1,896.0,-0.641699016445008,2,0,2,7020.0,1036.0,6.776061776061776,13.552123552123552,3.131743683937743,6.263487367875486
2,244,0,../static/images/invador2.png,1,80,2,40.0,left,70,2,916.0,-0.54357044921019,0,0,2,7020.0,1038.0,6.763005780346821,13.526011560693641,2.763715379653353,5.527430759306706
2,245,0,../static/images/invador1.png,4,20,8,2.5,right,70,1,726.0,-1.47579183794096,2,0,2,7100.0,1042.0,6.813819577735125,54.510556621881,3.3051181488688917,26.440945190951133
2,246,0,../static/images/invador2.png,1,80,2,40.0,left,70,2,888.0,-0.680950443338935,0,0,2,7100.0,1044.0,6.800766283524904,13.601532567049809,2.9167156643276435,5.833431328655287
2,247,0,../static/images/invador3.png,3,80,8,10.0,left,70,2,912.0,-0.563196162657154,0,0,2,7180.0,1048.0,6.851145038167939,54.80916030534351,3.422264735443719,27.378117883549752
2,248,0,../static/images/invador2.png,1,80,2,40.0,right,74,2,902.0,-0.612260446274562,1,0,2,7260.0,1058.0,6.862003780718337,13.724007561436673,2.989873154032201,5.979746308064402
2,249,0,../static/images/invador2.png,1,80,2,40.0,right,74,2,146.0,-4.32152028775066,0,0,2,7340.0,1062.0,6.911487758945386,13.822975517890772,3.4782786848263374,6.956557369652675
2,250,0,../static/images/invador2.png,1,80,2,40.0,right,74,2,988.0,-0.190307607164847,0,0,2,7420.0,1066.0,6.960600375234522,13.921200750469044,3.8522325040535366,7.704465008107073
2,251,0,../static/images/invador4.png,2,20,2,10.0,left,70,2,970.0,-0.278623317676183,1,0,2,7500.0,1070.0,7.009345794392523,14.018691588785046,4.1385549351022375,8.277109870204475
2,252,0,../static/images/invador1.png,4,20,8,2.5,right,70,1,1064.0,0.182580948327459,0,0,2,7520.0,1074.0,7.001862197392923,56.01489757914339,3.4659976861849002,27.727981489479202
2,253,0,../static/images/invador4.png,2,20,2,10.0,left,74,1,898.0,-0.631886159721526,0,0,2,7520.0,1076.0,6.988847583643123,13.977695167286246,3.058689368571764,6.117378737143528
2,254,0,../static/images/invador3.png,3,80,8,10.0,right,74,2,1106.0,0.388650939520576,0,0,2,7520.0,1078.0,6.975881261595547,55.80705009276438,2.6992460758713976,21.59396860697118
3,0,0,../static/images/invador3.png,4,20,8,2.5,right,74,2,1327.0,1.65550767443655,0,0,1,0.0,2.0,0.0,0.0,6.430289651467192,51.44231721173754
3,1,0,../static/images/invador4.png,1,80,2,40.0,right,70,1,1007.0,0.260157075483072,2,0,1,20.0,12.0,1.6666666666666667,3.3333333333333335,5.254617278740288,10.509234557480577
3,2,0,../static/images/invador4.png,1,80,2,40.0,right,70,1,733.0,-0.934611874870844,2,0,1,20.0,14.0,1.4285714285714286,2.857142857142857,4.813206710812588,9.626413421625177
3,3,0,../static/images/invador4.png,1,80,2,40.0,left,70,2,1016.0,0.299401311078638,0,0,1,20.0,16.0,1.25,2.5,4.408876538876158,8.817753077752316
3,4,0,../static/images/invador2.png,2,20,2,10.0,left,70,2,1453.0,2.20492697277448,0,0,1,100.0,20.0,5.0,10.0,9.138559347689093,18.277118695378185
3,5,0,../static/images/invador4.png,1,80,2,40.0,right,74,2,1535.0,2.56248556375631,0,0,1,120.0,24.0,5.0,10.0,8.500405630046222,17.000811260092444
3,6,0,../static/images/invador1.png,3,80,8,10.0,left,70,2,1200.0,1.10172790547689,1,0,1,200.0,28.0,7.142857142857143,57.142857142857146,12.303182284560414,98.42545827648331
3,7,0,../static/images/invador2.png,2,20,2,10.0,left,74,1,894.0,-0.232576104772375,2,0,1,280.0,38.0,7.368421052631579,14.736842105263158,13.042129791554986,26.084259583109972
3,8,0,../static/images/invador3.png,4,20,8,2.5,left,74,1,1997.0,4.5770229909954,0,0,1,280.0,40.0,7.0,56.0,11.94653450594416,95.57227604755327
3,9,0,../static/images/invador4.png,1,80,2,40.0,left,70,2,1395.0,1.95201967671416,0,0,1,280.0,42.0,6.666666666666667,13.333333333333334,10.942973960750493,21.885947921500986
3,10,0,../static/images/invador4.png,1,80,2,40.0,right,74,2,910.0,-0.162808574824701,1,0,1,360.0,46.0,7.826086956521739,15.652173913043478,14.192404526901045,28.38480905380209
3,11,0,../static/images/invador4.png,1,80,2,40.0,left,70,2,1297.0,1.52469355578466,0,0,1,440.0,50.0,8.8,17.6,16.705700234269486,33.41140046853897
3,12,0,../static/images/invador1.png,3,80,8,10.0,left,74,1,1310.0,1.58137967386715,0,0,1,520.0,54.0,9.62962962962963,77.03703703703704,18.649627080553714,149.1970166444297
3,13,0,../static/images/invador4.png,1,80,2,40.0,left,70,2,992.0,0.194750016157128,0,0,1,520.0,56.0,9.285714285714286,18.571428571428573,17.082977780599265,34.16595556119853
3,14,0,../static/images/invador3.png,4,20,8,2.5,left,74,1,1205.0,1.12353025858554,0,0,1,600.0,60.0,10.0,80.0,18.94143514303539,151.53148114428313
3,15,0,../static/images/invador2.png,2,20,2,10.0,right,70,1,1520.0,2.49707850443037,0,0,1,600.0,62.0,9.67741935483871,19.35483870967742,17.350272704301638,34.700545408603276
3,16,0,../static/images/invador1.png,3,80,8,10.0,right,74,2,1315.0,1.60318202697579,1,0,1,600.0,64.0,9.375,75.0,15.892774789259903,127.14219831407922
3,17,0,../static/images/invador4.png,1,80,2,40.0,left,70,2,1265.0,1.38515849588931,1,0,1,680.0,74.0,9.18918918918919,18.37837837837838,15.175969289003637,30.351938578007275
3,18,0,../static/images/invador4.png,1,80,2,40.0,right,74,2,1079.0,0.574110960247605,0,0,1,760.0,78.0,9.743589743589743,19.487179487179485,17.4664455538532,34.9328911077064
3,19,0,../static/images/invador4.png,1,80,2,40.0,right,74,2,751.0,-0.856123403679711,0,0,1,840.0,82.0,10.24390243902439,20.48780487804878,19.23803108155855,38.4760621631171
3,20,0,../static/images/invador4.png,1,80,2,40.0,right,74,2,1345.0,1.73399614562768,0,0,1,920.0,86.0,10.69767441860465,21.3953488372093,20.608276794268935,41.21655358853787
3,21,0,../static/images/invador3.png,4,20,8,2.5,left,74,1,1259.0,1.35899567215894,0,0,1,1000.0,90.0,11.11111111111111,88.88888888888889,21.668103307772434,173.34482646217947
3,22,0,../static/images/invador4.png,1,80,2,40.0,right,74,2,1248.0,1.31103049531991,0,0,1,1000.0,92.0,10.869565217391305,21.73913043478261,19.847888955397593,39.69577791079519
3,23,0,../static/images/invador4.png,1,80,2,40.0,right,74,0,NaN,NaN,0,1,1,1080.0,96.0,11.25,22.5,21.079975802824855,42.15995160564971
3,24,0,../static/images/invador1.png,3,80,8,10.0,right,74,2,1458.0,2.22672932588313,0,0,1,1080.0,106.0,10.18867924528302,81.50943396226415,13.593685809356026,108.74948647484821
3,25,0,../static/images/invador2.png,2,20,2,10.0,left,70,0,NaN,NaN,0,1,1,1160.0,116.0,10.0,20.0,13.80927185272221,27.61854370544442
3,26,0,../static/images/invador4.png,1,80,2,40.0,left,70,2,1156.0,0.909867198120785,0,0,1,1160.0,126.0,9.206349206349206,18.41269841269841,8.905081513268811,17.810163026537623
3,27,0,../static/images/invador4.png,1,80,2,40.0,right,74,2,730.0,-0.947693286736033,0,0,1,1240.0,130.0,9.538461538461538,19.076923076923077,12.616181790004145,25.23236358000829
3,28,0,../static/images/invador2.png,2,20,2,10.0,left,70,2,1009.0,0.268878016726531,0,0,1,1320.0,134.0,9.850746268656716,19.70149253731343,15.48655929315606,30.97311858631212
3,29,0,../static/images/invador3.png,4,20,8,2.5,right,70,1,1366.0,1.82556602868401,0,0,1,1340.0,138.0,9.710144927536232,77.68115942028986,13.410312362479537,107.2824988998363
3,30,0,../static/images/invador4.png,1,80,2,40.0,right,74,2,1442.0,2.15696179593546,0,0,1,1340.0,140.0,9.571428571428571,19.142857142857142,12.283788149201529,24.567576298403058
3,31,0,../static/images/invador4.png,1,80,2,40.0,right,74,2,1040.0,0.404052606000149,0,0,1,1420.0,144.0,9.86111111111111,19.72222222222222,15.229467013884666,30.45893402776933
3,32,0,../static/images/invador1.png,3,80,8,10.0,right,74,2,1129.0,0.792134491334086,1,0,1,1500.0,148.0,10.135135135135135,81.08108108108108,17.507823758298652,140.06259006638922
