"subj","trial_index_actual","block","stimulus","stim_rank","reward_percent","delay_s","profitability","stim_left_right","key_press","approach_avoid","rt","rt_z","force_trial","missed","order_condition","exclude","exclude_reason"
"1","0","1","../static/images/invador2.png","4","20","8","2.5","left","74","-1","1172","1.47500432853951","0","0","2","0","do not exclude"
"1","1","1","../static/images/invador3.png","1","80","2","40","right","74","1","1046","0.846310915380688","1","0","2","0","do not exclude"
"1","2","1","../static/images/invador1.png","3","80","8","10","left","70","1","743","-0.665547054358389","0","0","2","0","do not exclude"
"1","3","1","../static/images/invador2.png","4","20","8","2.5","right","74","NaN","NaN","NaN","1","1","2","0","do not exclude"
"1","4","1","../static/images/invador2.png","4","20","8","2.5","left","70","1","858","-0.0917395740943829","0","0","2","0","do not exclude"
"1","5","1","../static/images/invador4.png","2","20","2","10","left","70","1","818","-0.291324784620994","0","0","2","0","do not exclude"
"1","6","1","../static/images/invador2.png","4","20","8","2.5","left","70","1","1076","0.995999823275646","0","0","2","0","do not exclude"
"1","7","1","../static/images/invador2.png","4","20","8","2.5","right","74","1","987","0.551922729853937","0","0","2","0","do not exclude"
"1","8","1","../static/images/invador1.png","3","80","8","10","left","74","-1","766","-0.550785558305588","2","0","2","0","do not exclude"
"1","9","1","../static/images/invador4.png","2","20","2","10","right","74","1","1059","0.911176108801837","0","0","2","0","do not exclude"
"1","10","1","../static/images/invador2.png","4","20","8","2.5","left","74","-1","569","-1.53374272014915","2","0","2","0","do not exclude"
"1","11","1","../static/images/invador3.png","1","80","2","40","right","74","1","940","0.317410107485169","0","0","2","0","do not exclude"
"1","12","1","../static/images/invador2.png","4","20","8","2.5","left","74","-1","791","-0.426044801726456","2","0","2","0","do not exclude"
"1","13","1","../static/images/invador2.png","4","20","8","2.5","left","70","1","907","0.152752308800715","0","0","2","0","do not exclude"
"1","14","1","../static/images/invador2.png","4","20","8","2.5","right","70","-1","962","0.427181973274805","2","0","2","0","do not exclude"
"1","15","1","../static/images/invador2.png","4","20","8","2.5","left","70","1","919","0.212627871958699","0","0","2","0","do not exclude"
"1","16","1","../static/images/invador2.png","4","20","8","2.5","left","74","-1","949","0.362316779853657","0","0","2","0","do not exclude"
"1","17","1","../static/images/invador4.png","2","20","2","10","left","70","1","873","-0.0168951201469038","0","0","2","0","do not exclude"
"1","18","1","../static/images/invador1.png","3","80","8","10","left","70","1","1016","0.69662200748573","0","0","2","0","do not exclude"
"1","19","1","../static/images/invador3.png","1","80","2","40","left","70","1","907","0.152752308800715","0","0","2","0","do not exclude"
"1","20","1","../static/images/invador2.png","4","20","8","2.5","left","74","-1","763","-0.565754449095084","0","0","2","0","do not exclude"
"1","21","1","../static/images/invador2.png","4","20","8","2.5","left","74","-1","1056","0.896207218012341","0","0","2","0","do not exclude"
"1","22","1","../static/images/invador4.png","2","20","2","10","right","74","1","772","-0.520847776726596","0","0","2","0","do not exclude"
"1","23","1","../static/images/invador2.png","4","20","8","2.5","left","74","-1","868","-0.0418432714627302","0","0","2","0","do not exclude"
"1","24","1","../static/images/invador1.png","3","80","8","10","right","74","1","1015","0.691632377222565","0","0","2","0","do not exclude"
"1","25","1","../static/images/invador3.png","1","80","2","40","left","74","-1","961","0.42219234301164","0","0","2","0","do not exclude"
"1","26","1","../static/images/invador2.png","4","20","8","2.5","right","70","-1","1075","0.991010193012481","0","0","2","0","do not exclude"
"1","27","1","../static/images/invador2.png","4","20","8","2.5","left","74","-1","1015","0.691632377222565","0","0","2","0","do not exclude"
"1","28","1","../static/images/invador4.png","2","20","2","10","left","70","1","954","0.387264931169483","0","0","2","0","do not exclude"
"1","29","1","../static/images/invador2.png","4","20","8","2.5","left","70","1","907","0.152752308800715","0","0","2","0","do not exclude"
"1","30","1","../static/images/invador1.png","3","80","8","10","left","74","-1","612","-1.31918861883304","2","0","2","0","do not exclude"
"1","31","1","../static/images/invador3.png","1","80","2","40","left","70","1","871","-0.0268743806732344","1","0","2","0","do not exclude"
"1","32","1","../static/images/invador2.png","4","20","8","2.5","right","70","-1","948","0.357327149590492","0","0","2","0","do not exclude"
"1","33","1","../static/images/invador2.png","4","20","8","2.5","left","74","-1","967","0.452130124590632","0","0","2","0","do not exclude"
"1","34","1","../static/images/invador2.png","4","20","8","2.5","right","70","-1","1068","0.956082781170324","0","0","2","0","do not exclude"
"1","35","1","../static/images/invador3.png","1","80","2","40","right","74","1","783","-0.465961843831778","0","0","2","0","do not exclude"
"1","36","1","../static/images/invador2.png","4","20","8","2.5","right","70","-1","1000","0.616787923275086","0","0","2","0","do not exclude"
"1","37","1","../static/images/invador4.png","2","20","2","10","left","70","1","893","0.0828974851164016","0","0","2","0","do not exclude"
"1","38","1","../static/images/invador1.png","3","80","8","10","right","74","1","777","-0.49589962541077","0","0","2","0","do not exclude"
"1","39","1","../static/images/invador2.png","4","20","8","2.5","left","74","-1","1006","0.646725704854077","0","0","2","0","do not exclude"
"1","40","1","../static/images/invador2.png","4","20","8","2.5","right","70","-1","1025","0.741528679854217","0","0","2","0","do not exclude"
"1","41","1","../static/images/invador2.png","4","20","8","2.5","right","70","-1","931","0.272503435116682","0","0","2","0","do not exclude"
"1","42","1","../static/images/invador2.png","4","20","8","2.5","right","70","-1","982","0.526974578538111","0","0","2","0","do not exclude"
"1","43","1","../static/images/invador4.png","2","20","2","10","right","74","1","888","0.0579493338005753","0","0","2","0","do not exclude"
"1","44","1","../static/images/invador2.png","4","20","8","2.5","right","70","-1","885","0.0429804430110794","0","0","2","0","do not exclude"
"1","45","1","../static/images/invador2.png","4","20","8","2.5","right","70","-1","1032","0.776456091696374","0","0","2","0","do not exclude"
"1","46","1","../static/images/invador3.png","1","80","2","40","right","74","NaN","NaN","NaN","0","1","2","0","do not exclude"
"1","47","1","../static/images/invador1.png","3","80","8","10","left","70","1","1046","0.846310915380688","1","0","2","0","do not exclude"
"1","48","1","../static/images/invador2.png","4","20","8","2.5","right","70","-1","962","0.427181973274805","0","0","2","0","do not exclude"
"1","49","1","../static/images/invador2.png","4","20","8","2.5","left","70","1","722","-0.77032928988486","0","0","2","0","do not exclude"
"1","50","1","../static/images/invador2.png","4","20","8","2.5","right","70","-1","884","0.0379908127479142","0","0","2","0","do not exclude"
"1","51","1","../static/images/invador1.png","3","80","8","10","right","70","-1","486","-1.94788203199186","2","0","2","0","do not exclude"
"1","52","1","../static/images/invador3.png","1","80","2","40","left","70","1","933","0.282482695643012","0","0","2","0","do not exclude"
"1","53","1","../static/images/invador2.png","4","20","8","2.5","right","70","-1","886","0.0479700732742447","0","0","2","0","do not exclude"
"1","54","1","../static/images/invador2.png","4","20","8","2.5","left","74","-1","599","-1.38405381225419","2","0","2","0","do not exclude"
"1","55","1","../static/images/invador4.png","2","20","2","10","right","74","1","885","0.0429804430110794","0","0","2","0","do not exclude"
"1","56","1","../static/images/invador1.png","3","80","8","10","right","70","-1","681","-0.974904130674636","2","0","2","0","do not exclude"
"1","57","1","../static/images/invador3.png","1","80","2","40","right","74","1","969","0.462109385116962","0","0","2","0","do not exclude"
"1","58","1","../static/images/invador2.png","4","20","8","2.5","right","70","-1","975","0.492047166695954","0","0","2","0","do not exclude"
"1","59","1","../static/images/invador4.png","2","20","2","10","left","70","1","1033","0.78144572195954","0","0","2","0","do not exclude"
"1","60","1","../static/images/invador2.png","4","20","8","2.5","right","70","-1","929","0.262524174590351","2","0","2","0","do not exclude"
"1","61","1","../static/images/invador2.png","4","20","8","2.5","left","74","-1","1219","1.70951695090828","0","0","2","0","do not exclude"
"1","62","1","../static/images/invador2.png","4","20","8","2.5","right","70","-1","1046","0.846310915380688","0","0","2","0","do not exclude"
"1","63","1","../static/images/invador2.png","4","20","8","2.5","right","70","-1","963","0.432171603537971","0","0","2","0","do not exclude"
"1","64","1","../static/images/invador2.png","4","20","8","2.5","right","70","-1","627","-1.24434416488556","2","0","2","0","do not exclude"
"1","65","1","../static/images/invador2.png","4","20","8","2.5","right","70","-1","852","-0.121677355673375","0","0","2","0","do not exclude"
"1","66","1","../static/images/invador4.png","2","20","2","10","right","70","-1","933","0.282482695643012","0","0","2","0","do not exclude"
"1","67","1","../static/images/invador3.png","1","80","2","40","right","70","-1","567","-1.54372198067548","2","0","2","0","do not exclude"
"1","68","1","../static/images/invador1.png","3","80","8","10","right","70","-1","836","-0.201511439884019","0","0","2","0","do not exclude"
"1","69","1","../static/images/invador2.png","4","20","8","2.5","right","70","-1","1014","0.686642746959399","0","0","2","0","do not exclude"
"1","70","1","../static/images/invador2.png","4","20","8","2.5","right","70","-1","725","-0.755360399095364","2","0","2","0","do not exclude"
"1","71","1","../static/images/invador1.png","3","80","8","10","right","74","1","805","-0.356189978042142","0","0","2","0","do not exclude"
"1","72","1","../static/images/invador2.png","4","20","8","2.5","right","70","-1","1036","0.796414612749035","0","0","2","0","do not exclude"
"1","73","1","../static/images/invador2.png","4","20","8","2.5","left","74","-1","1125","1.24049170617074","0","0","2","0","do not exclude"
"1","74","1","../static/images/invador4.png","2","20","2","10","right","70","-1","589","-1.43395011488584","2","0","2","0","do not exclude"
"1","75","1","../static/images/invador3.png","1","80","2","40","left","70","NaN","NaN","NaN","0","1","2","0","do not exclude"
"1","76","1","../static/images/invador2.png","4","20","8","2.5","right","74","1","1543","3.32615715617383","0","0","2","0","do not exclude"
"1","77","1","../static/images/invador2.png","4","20","8","2.5","left","74","-1","924","0.237576023274525","2","0","2","0","do not exclude"
"1","78","1","../static/images/invador2.png","4","20","8","2.5","right","70","-1","1068","0.956082781170324","0","0","2","0","do not exclude"
"1","79","1","../static/images/invador4.png","2","20","2","10","left","70","1","1022","0.726559789064722","0","0","2","0","do not exclude"
"1","80","1","../static/images/invador1.png","3","80","8","10","right","74","1","1161","1.42011839564469","0","0","2","0","do not exclude"
"1","81","1","../static/images/invador3.png","1","80","2","40","left","70","1","883","0.0330011824847489","0","0","2","0","do not exclude"
"1","82","1","../static/images/invador2.png","4","20","8","2.5","left","74","-1","924","0.237576023274525","0","0","2","0","do not exclude"
"1","83","1","../static/images/invador2.png","4","20","8","2.5","right","70","-1","1178","1.5049421101185","0","0","2","0","do not exclude"
"1","84","1","../static/images/invador2.png","4","20","8","2.5","left","70","1","1066","0.946103520643994","0","0","2","0","do not exclude"
"1","85","1","../static/images/invador2.png","4","20","8","2.5","right","74","1","533","-1.7133694096231","1","0","2","0","do not exclude"
"1","86","1","../static/images/invador2.png","4","20","8","2.5","right","74","1","544","-1.65848347672828","1","0","2","0","do not exclude"
"1","87","1","../static/images/invador4.png","2","20","2","10","left","74","-1","1121","1.22053318511808","0","0","2","0","do not exclude"
"1","88","1","../static/images/invador2.png","4","20","8","2.5","left","70","1","1104","1.13570947064427","0","0","2","0","do not exclude"
"1","89","1","../static/images/invador1.png","3","80","8","10","right","74","1","896","0.0978663759058974","0","0","2","0","do not exclude"
"1","90","1","../static/images/invador3.png","1","80","2","40","left","70","1","832","-0.22146996093668","0","0","2","0","do not exclude"
"1","91","1","../static/images/invador2.png","4","20","8","2.5","left","70","1","672","-1.01981080304312","1","0","2","0","do not exclude"
"1","92","1","../static/images/invador4.png","2","20","2","10","left","70","1","931","0.272503435116682","0","0","2","0","do not exclude"
"1","93","1","../static/images/invador3.png","1","80","2","40","left","74","-1","718","-0.790287810937521","2","0","2","0","do not exclude"
"1","94","1","../static/images/invador2.png","4","20","8","2.5","left","74","-1","685","-0.954945609621975","2","0","2","0","do not exclude"
"1","95","1","../static/images/invador2.png","4","20","8","2.5","left","74","-1","1211","1.66959990880296","0","0","2","0","do not exclude"
"1","96","1","../static/images/invador1.png","3","80","8","10","right","74","1","905","0.142773048274385","0","0","2","0","do not exclude"
"1","97","1","../static/images/invador2.png","4","20","8","2.5","left","74","-1","1021","0.721570158801556","0","0","2","0","do not exclude"
"1","98","1","../static/images/invador2.png","4","20","8","2.5","right","70","-1","971","0.472088645643293","0","0","2","0","do not exclude"
"1","99","1","../static/images/invador2.png","4","20","8","2.5","left","74","-1","995","0.591839771959259","0","0","2","0","do not exclude"
"1","100","1","../static/images/invador4.png","2","20","2","10","right","74","1","1089","1.06086501669679","0","0","2","0","do not exclude"
"1","101","1","../static/images/invador3.png","1","80","2","40","left","70","1","804","-0.361179608305308","0","0","2","0","do not exclude"
"1","102","1","../static/images/invador2.png","4","20","8","2.5","right","70","-1","994","0.586850141696094","0","0","2","0","do not exclude"
"1","103","1","../static/images/invador1.png","3","80","8","10","left","70","1","1199","1.60972434564497","0","0","2","0","do not exclude"
"1","104","1","../static/images/invador2.png","4","20","8","2.5","right","74","1","563","-1.56368050172814","1","0","2","0","do not exclude"
"1","105","1","../static/images/invador2.png","4","20","8","2.5","left","74","-1","939","0.312420477222004","0","0","2","0","do not exclude"
"1","106","1","../static/images/invador2.png","4","20","8","2.5","right","70","-1","952","0.377285670643153","0","0","2","0","do not exclude"
"1","107","1","../static/images/invador1.png","3","80","8","10","left","70","1","933","0.282482695643012","1","0","2","0","do not exclude"
"1","108","1","../static/images/invador2.png","4","20","8","2.5","left","74","-1","963","0.432171603537971","0","0","2","0","do not exclude"
"1","109","1","../static/images/invador4.png","2","20","2","10","left","74","-1","878","0.00805303116892254","0","0","2","0","do not exclude"
"1","110","1","../static/images/invador3.png","1","80","2","40","left","70","1","809","-0.336231456989481","0","0","2","0","do not exclude"
"1","111","1","../static/images/invador2.png","4","20","8","2.5","right","70","-1","814","-0.311283305673655","0","0","2","0","do not exclude"
"1","112","1","../static/images/invador2.png","4","20","8","2.5","left","74","-1","890","0.0679285943269058","0","0","2","0","do not exclude"
"1","113","1","../static/images/invador2.png","4","20","8","2.5","right","70","-1","935","0.292461956169343","0","0","2","0","do not exclude"
"1","114","1","../static/images/invador2.png","4","20","8","2.5","left","74","-1","900","0.117824896958559","0","0","2","0","do not exclude"
"1","115","1","../static/images/invador3.png","1","80","2","40","right","74","1","783","-0.465961843831778","0","0","2","0","do not exclude"
"1","116","1","../static/images/invador4.png","2","20","2","10","left","70","1","1158","1.4051495048552","0","0","2","0","do not exclude"
"1","117","1","../static/images/invador2.png","4","20","8","2.5","left","74","-1","927","0.252544914064021","0","0","2","0","do not exclude"
"1","118","1","../static/images/invador1.png","3","80","8","10","right","70","-1","1067","0.951093150907159","0","0","2","0","do not exclude"
"1","119","1","../static/images/invador2.png","4","20","8","2.5","left","74","-1","694","-0.910038937253487","1","0","2","0","do not exclude"
"1","120","1","../static/images/invador4.png","2","20","2","10","right","70","-1","6","-4.34290455831119","0","0","2","0","do not exclude"
"1","121","1","../static/images/invador2.png","4","20","8","2.5","left","70","1","1019","0.711590898275226","0","0","2","0","do not exclude"
"1","122","1","../static/images/invador1.png","3","80","8","10","left","70","1","1071","0.97105167195982","0","0","2","0","do not exclude"
"1","123","1","../static/images/invador3.png","1","80","2","40","left","70","1","1138","1.30535689959189","0","0","2","0","do not exclude"
"1","124","1","../static/images/invador2.png","4","20","8","2.5","right","70","-1","538","-1.68842125830727","2","0","2","0","do not exclude"
"1","125","1","../static/images/invador2.png","4","20","8","2.5","right","70","-1","1110","1.16564725222327","0","0","2","0","do not exclude"
"1","126","1","../static/images/invador2.png","4","20","8","2.5","right","70","-1","1074","0.986020562749316","0","0","2","0","do not exclude"
"1","127","1","../static/images/invador2.png","4","20","8","2.5","left","74","-1","827","-0.246418112252506","0","0","2","0","do not exclude"
"1","128","1","../static/images/invador1.png","3","80","8","10","left","74","-1","855","-0.106708464883879","0","0","2","0","do not exclude"
"1","129","1","../static/images/invador2.png","4","20","8","2.5","right","70","-1","770","-0.530827037252927","0","0","2","0","do not exclude"
"1","130","1","../static/images/invador4.png","2","20","2","10","left","74","-1","893","0.0828974851164016","0","0","2","0","do not exclude"
"1","131","1","../static/images/invador2.png","4","20","8","2.5","right","70","-1","899","0.112835266695393","0","0","2","0","do not exclude"
"1","132","1","../static/images/invador3.png","1","80","2","40","right","70","-1","523","-1.76326571225475","2","0","2","0","do not exclude"
"1","133","1","../static/images/invador3.png","1","80","2","40","right","74","1","736","-0.700474466200546","0","0","2","0","do not exclude"
"1","134","1","../static/images/invador2.png","4","20","8","2.5","right","74","1","627","-1.24434416488556","1","0","2","0","do not exclude"
"1","135","1","../static/images/invador1.png","3","80","8","10","right","74","1","1111","1.17063688248643","0","0","2","0","do not exclude"
"1","136","1","../static/images/invador4.png","2","20","2","10","left","74","-1","937","0.302441216695674","0","0","2","0","do not exclude"
"1","137","1","../static/images/invador2.png","4","20","8","2.5","left","74","-1","1076","0.995999823275646","0","0","2","0","do not exclude"
"1","138","1","../static/images/invador2.png","4","20","8","2.5","right","70","-1","1008","0.656704965380408","0","0","2","0","do not exclude"
"1","139","1","../static/images/invador2.png","4","20","8","2.5","left","74","-1","856","-0.101718834620713","0","0","2","0","do not exclude"
"1","140","1","../static/images/invador2.png","4","20","8","2.5","right","70","-1","833","-0.216480330673515","0","0","2","0","do not exclude"
"1","141","1","../static/images/invador2.png","4","20","8","2.5","left","74","-1","827","-0.246418112252506","0","0","2","0","do not exclude"
"1","142","1","../static/images/invador4.png","2","20","2","10","right","74","1","1009","0.661694595643573","0","0","2","0","do not exclude"
"1","143","1","../static/images/invador3.png","1","80","2","40","left","70","1","805","-0.356189978042142","0","0","2","0","do not exclude"
"1","144","1","../static/images/invador2.png","4","20","8","2.5","right","70","-1","748","-0.640598903042563","0","0","2","0","do not exclude"
"1","145","1","../static/images/invador1.png","3","80","8","10","right","70","-1","616","-1.29923009778038","2","0","2","0","do not exclude"
"1","146","1","../static/images/invador2.png","4","20","8","2.5","left","74","-1","927","0.252544914064021","0","0","2","0","do not exclude"
"1","147","1","../static/images/invador2.png","4","20","8","2.5","left","74","-1","1303","2.12864589301416","0","0","2","0","do not exclude"
"1","148","1","../static/images/invador1.png","3","80","8","10","right","70","-1","621","-1.27428194646455","2","0","2","0","do not exclude"
"1","149","1","../static/images/invador3.png","1","80","2","40","left","70","1","931","0.272503435116682","0","0","2","0","do not exclude"
"1","150","1","../static/images/invador4.png","2","20","2","10","left","70","1","607","-1.34413677014887","1","0","2","0","do not exclude"
"1","151","1","../static/images/invador2.png","4","20","8","2.5","left","74","-1","872","-0.0218847504100691","0","0","2","0","do not exclude"
"1","152","1","../static/images/invador2.png","4","20","8","2.5","right","70","-1","976","0.497036796959119","0","0","2","0","do not exclude"
"1","153","1","../static/images/invador2.png","4","20","8","2.5","left","74","-1","970","0.467099015380127","0","0","2","0","do not exclude"
"1","154","1","../static/images/invador2.png","4","20","8","2.5","right","70","-1","819","-0.286335154357828","0","0","2","0","do not exclude"
"1","155","1","../static/images/invador3.png","1","80","2","40","left","70","1","876","-0.001926229357408","0","0","2","0","do not exclude"
"1","156","1","../static/images/invador2.png","4","20","8","2.5","left","74","-1","583","-1.46388789646483","2","0","2","0","do not exclude"
"1","157","1","../static/images/invador4.png","2","20","2","10","left","74","-1","989","0.561901990380268","0","0","2","0","do not exclude"
"1","158","1","../static/images/invador2.png","4","20","8","2.5","right","70","-1","865","-0.056812162252226","0","0","2","0","do not exclude"
"1","159","1","../static/images/invador2.png","4","20","8","2.5","right","70","-1","841","-0.176563288568193","0","0","2","0","do not exclude"
"1","160","1","../static/images/invador1.png","3","80","8","10","left","70","1","815","-0.30629367541049","0","0","2","0","do not exclude"
"1","161","1","../static/images/invador2.png","4","20","8","2.5","right","70","-1","913","0.182690090379707","0","0","2","0","do not exclude"
"1","162","1","../static/images/invador1.png","3","80","8","10","right","70","-1","615","-1.30421972804354","2","0","2","0","do not exclude"
"1","163","1","../static/images/invador4.png","2","20","2","10","left","70","1","1038","0.806393873275366","0","0","2","0","do not exclude"
"1","164","1","../static/images/invador2.png","4","20","8","2.5","right","70","-1","735","-0.705464096463711","0","0","2","0","do not exclude"
"1","165","1","../static/images/invador2.png","4","20","8","2.5","right","70","-1","777","-0.49589962541077","0","0","2","0","do not exclude"
"1","166","1","../static/images/invador2.png","4","20","8","2.5","left","70","1","626","-1.24933379514873","1","0","2","0","do not exclude"
"1","167","1","../static/images/invador3.png","1","80","2","40","left","70","1","842","-0.171573658305027","0","0","2","0","do not exclude"
"1","168","1","../static/images/invador2.png","4","20","8","2.5","left","74","-1","1079","1.01096871406514","0","0","2","0","do not exclude"
"1","169","1","../static/images/invador2.png","4","20","8","2.5","left","74","-1","978","0.50701605748545","0","0","2","0","do not exclude"
"1","170","1","../static/images/invador2.png","4","20","8","2.5","left","74","-1","921","0.222607132485029","0","0","2","0","do not exclude"
"1","171","1","../static/images/invador4.png","2","20","2","10","right","70","-1","783","-0.465961843831778","0","0","2","0","do not exclude"
"1","172","1","../static/images/invador2.png","4","20","8","2.5","right","70","-1","969","0.462109385116962","0","0","2","0","do not exclude"
"1","173","1","../static/images/invador1.png","3","80","8","10","right","70","-1","818","-0.291324784620994","0","0","2","0","do not exclude"
"1","174","1","../static/images/invador3.png","1","80","2","40","left","70","1","965","0.442150864064301","0","0","2","0","do not exclude"
"1","175","1","../static/images/invador3.png","1","80","2","40","left","70","1","872","-0.0218847504100691","1","0","2","0","do not exclude"
"1","176","1","../static/images/invador4.png","2","20","2","10","left","74","-1","918","0.207638241695533","0","0","2","0","do not exclude"
"1","177","1","../static/images/invador2.png","4","20","8","2.5","right","70","-1","971","0.472088645643293","0","0","2","0","do not exclude"
"1","178","1","../static/images/invador2.png","4","20","8","2.5","left","74","-1","947","0.352337519327326","0","0","2","0","do not exclude"
"1","179","1","../static/images/invador2.png","4","20","8","2.5","left","74","-1","871","-0.0268743806732344","0","0","2","0","do not exclude"
"1","180","1","../static/images/invador2.png","4","20","8","2.5","left","74","-1","880","0.0180322916952531","0","0","2","0","do not exclude"
"1","181","1","../static/images/invador1.png","3","80","8","10","left","70","1","934","0.287472325906178","0","0","2","0","do not exclude"
"1","182","1","../static/images/invador2.png","4","20","8","2.5","left","74","-1","897","0.102856006169063","0","0","2","0","do not exclude"
"1","183","1","../static/images/invador4.png","2","20","2","10","left","74","-1","823","-0.266376633305167","0","0","2","0","do not exclude"
"1","184","1","../static/images/invador1.png","3","80","8","10","right","74","1","1055","0.891217587749176","0","0","2","0","do not exclude"
"1","185","1","../static/images/invador2.png","4","20","8","2.5","left","74","-1","516","-1.79819312409691","2","0","2","0","do not exclude"
"1","186","1","../static/images/invador2.png","4","20","8","2.5","left","74","-1","988","0.556912360117102","0","0","2","0","do not exclude"
"1","187","1","../static/images/invador2.png","4","20","8","2.5","right","70","-1","1029","0.761487200906878","0","0","2","0","do not exclude"
"1","188","1","../static/images/invador3.png","1","80","2","40","left","70","1","824","-0.261387003042002","1","0","2","0","do not exclude"
"1","189","1","../static/images/invador1.png","3","80","8","10","left","74","-1","925","0.24256565353769","0","0","2","0","do not exclude"
"1","190","1","../static/images/invador2.png","4","20","8","2.5","left","70","1","535","-1.70339014909677","1","0","2","0","do not exclude"
"1","191","1","../static/images/invador4.png","2","20","2","10","right","70","-1","523","-1.76326571225475","2","0","2","0","do not exclude"
"1","192","1","../static/images/invador2.png","4","20","8","2.5","right","70","-1","868","-0.0418432714627302","0","0","2","0","do not exclude"
"1","193","1","../static/images/invador3.png","1","80","2","40","right","70","-1","539","-1.6834316280441","2","0","2","0","do not exclude"
"1","194","1","../static/images/invador2.png","4","20","8","2.5","left","74","-1","867","-0.0468329017258954","0","0","2","0","do not exclude"
"1","195","1","../static/images/invador2.png","4","20","8","2.5","left","74","-1","902","0.127804157484889","0","0","2","0","do not exclude"
"1","196","1","../static/images/invador1.png","3","80","8","10","left","70","1","1069","0.961072411433489","0","0","2","0","do not exclude"
"1","197","1","../static/images/invador4.png","2","20","2","10","right","70","-1","874","-0.0119054898837385","0","0","2","0","do not exclude"
"1","198","1","../static/images/invador2.png","4","20","8","2.5","right","70","-1","657","-1.0946552569906","2","0","2","0","do not exclude"
"1","199","1","../static/images/invador2.png","4","20","8","2.5","left","70","1","1226","1.74444436275044","0","0","2","0","do not exclude"
"1","200","1","../static/images/invador3.png","1","80","2","40","right","74","1","808","-0.341221087252646","0","0","2","0","do not exclude"
"1","201","1","../static/images/invador2.png","4","20","8","2.5","right","70","-1","987","0.551922729853937","0","0","2","0","do not exclude"
"1","202","1","../static/images/invador2.png","4","20","8","2.5","right","74","1","660","-1.07968636620111","1","0","2","0","do not exclude"
"1","203","1","../static/images/invador2.png","4","20","8","2.5","right","70","-1","916","0.197658981169203","0","0","2","0","do not exclude"
"1","204","1","../static/images/invador1.png","3","80","8","10","right","74","1","1034","0.786435352222705","0","0","2","0","do not exclude"
"1","205","1","../static/images/invador3.png","1","80","2","40","left","70","1","571","-1.52376345962282","1","0","2","0","do not exclude"
"1","206","1","../static/images/invador4.png","2","20","2","10","left","70","1","1038","0.806393873275366","0","0","2","0","do not exclude"
"1","207","1","../static/images/invador2.png","4","20","8","2.5","left","74","-1","1034","0.786435352222705","0","0","2","0","do not exclude"
"1","208","1","../static/images/invador2.png","4","20","8","2.5","left","74","-1","1040","0.816373133801697","1","0","2","0","do not exclude"
"1","209","1","../static/images/invador2.png","4","20","8","2.5","left","70","1","0","-4.37284233989019","0","0","2","0","do not exclude"
"1","210","1","../static/images/invador2.png","4","20","8","2.5","left","74","-1","1020","0.716580528538391","0","0","2","0","do not exclude"
"1","211","0","../static/images/invador4.png","2","20","2","10","right","70","-1","739","-0.68550557541105","2","0","2","0","do not exclude"
"1","212","0","../static/images/invador3.png","1","80","2","40","left","70","1","552","-1.61856643462296","1","0","2","0","do not exclude"
"1","213","0","../static/images/invador2.png","4","20","8","2.5","left","74","-1","987","0.551922729853937","0","0","2","0","do not exclude"
"1","214","0","../static/images/invador3.png","1","80","2","40","right","74","1","1055","0.891217587749176","0","0","2","0","do not exclude"
"1","215","0","../static/images/invador1.png","3","80","8","10","right","70","-1","867","-0.0468329017258954","0","0","2","0","do not exclude"
"1","216","0","../static/images/invador3.png","1","80","2","40","right","74","1","1061","0.921155369328167","0","0","2","0","do not exclude"
"1","217","0","../static/images/invador3.png","1","80","2","40","left","70","1","599","-1.38405381225419","1","0","2","0","do not exclude"
"1","218","0","../static/images/invador4.png","2","20","2","10","left","74","-1","1198","1.60473471538181","0","0","2","0","do not exclude"
"1","219","0","../static/images/invador3.png","1","80","2","40","right","74","1","753","-0.615650751726736","0","0","2","0","do not exclude"
"1","220","0","../static/images/invador3.png","1","80","2","40","left","70","1","1062","0.926144999591332","0","0","2","0","do not exclude"
"1","221","0","../static/images/invador3.png","1","80","2","40","left","70","1","717","-0.795277441200686","1","0","2","0","do not exclude"
"1","222","0","../static/images/invador2.png","4","20","8","2.5","right","70","-1","1092","1.07583390748629","0","0","2","0","do not exclude"
"1","223","0","../static/images/invador1.png","3","80","8","10","left","70","1","1159","1.41013913511836","0","0","2","0","do not exclude"
"1","224","0","../static/images/invador3.png","1","80","2","40","left","70","1","1082","1.02593760485464","0","0","2","0","do not exclude"
"1","225","0","../static/images/invador1.png","3","80","8","10","left","70","1","548","-1.63852495567562","1","0","2","0","do not exclude"
"1","226","0","../static/images/invador3.png","1","80","2","40","right","74","1","988","0.556912360117102","0","0","2","0","do not exclude"
"1","227","0","../static/images/invador2.png","4","20","8","2.5","right","70","-1","507","-1.84309979646539","2","0","2","0","do not exclude"
"1","228","0","../static/images/invador3.png","1","80","2","40","right","74","1","966","0.447140494327466","0","0","2","0","do not exclude"
"1","229","0","../static/images/invador4.png","2","20","2","10","right","70","-1","947","0.352337519327326","0","0","2","0","do not exclude"
"1","230","0","../static/images/invador3.png","1","80","2","40","right","74","1","968","0.457119754853797","0","0","2","0","do not exclude"
"1","231","0","../static/images/invador3.png","1","80","2","40","left","70","1","1061","0.921155369328167","0","0","2","0","do not exclude"
"1","232","0","../static/images/invador2.png","4","20","8","2.5","right","74","1","525","-1.75328645172842","1","0","2","0","do not exclude"
"1","233","0","../static/images/invador3.png","1","80","2","40","right","74","1","960","0.417202712748475","0","0","2","0","do not exclude"
"1","234","0","../static/images/invador3.png","1","80","2","40","right","74","1","946","0.347347889064161","0","0","2","0","do not exclude"
"1","235","0","../static/images/invador3.png","1","80","2","40","right","74","1","952","0.377285670643153","0","0","2","0","do not exclude"
"1","236","0","../static/images/invador4.png","2","20","2","10","left","70","1","712","-0.820225592516513","1","0","2","0","do not exclude"
"1","237","0","../static/images/invador1.png","3","80","8","10","left","70","1","468","-2.03769537672884","1","0","2","0","do not exclude"
"1","238","0","../static/images/invador4.png","2","20","2","10","left","74","-1","1100","1.11575094959161","0","0","2","0","do not exclude"
"1","239","0","../static/images/invador3.png","1","80","2","40","right","74","1","801","-0.376148499094803","0","0","2","0","do not exclude"
"1","240","0","../static/images/invador3.png","1","80","2","40","left","70","1","1013","0.681653116696234","0","0","2","0","do not exclude"
"1","241","0","../static/images/invador3.png","1","80","2","40","left","74","-1","563","-1.56368050172814","2","0","2","0","do not exclude"
"1","242","0","../static/images/invador2.png","4","20","8","2.5","left","74","-1","993","0.581860511432929","0","0","2","0","do not exclude"
"1","243","0","../static/images/invador1.png","3","80","8","10","left","74","-1","1206","1.64465175748713","0","0","2","0","do not exclude"
"1","244","0","../static/images/invador3.png","1","80","2","40","left","70","1","889","0.0629389640637405","0","0","2","0","do not exclude"
"1","245","0","../static/images/invador3.png","1","80","2","40","right","74","1","1068","0.956082781170324","0","0","2","0","do not exclude"
"1","246","0","../static/images/invador2.png","4","20","8","2.5","right","70","-1","999","0.61179829301192","0","0","2","0","do not exclude"
"1","247","0","../static/images/invador3.png","1","80","2","40","right","74","1","811","-0.326252196463151","0","0","2","0","do not exclude"
"1","248","0","../static/images/invador3.png","1","80","2","40","right","74","1","879","0.0130426614320878","0","0","2","0","do not exclude"
"1","249","0","../static/images/invador1.png","3","80","8","10","left","70","1","1212","1.67458953906612","0","0","2","0","do not exclude"
"1","250","0","../static/images/invador4.png","2","20","2","10","left","74","-1","1125","1.24049170617074","0","0","2","0","do not exclude"
"1","251","0","../static/images/invador3.png","1","80","2","40","left","70","1","856","-0.101718834620713","0","0","2","0","do not exclude"
"1","252","0","../static/images/invador2.png","4","20","8","2.5","left","74","-1","1070","0.966062041696655","0","0","2","0","do not exclude"
"1","253","0","../static/images/invador1.png","3","80","8","10","right","70","-1","1010","0.666684225906738","0","0","2","0","do not exclude"
"1","254","0","../static/images/invador3.png","1","80","2","40","left","74","-1","946","0.347347889064161","2","0","2","0","do not exclude"
"1","255","0","../static/images/invador3.png","1","80","2","40","left","70","1","791","-0.426044801726456","0","0","2","0","do not exclude"
"1","256","0","../static/images/invador3.png","1","80","2","40","left","70","1","996","0.596829402222425","0","0","2","0","do not exclude"
"1","257","0","../static/images/invador4.png","2","20","2","10","left","70","1","572","-1.51877382935965","1","0","2","0","do not exclude"
"1","258","0","../static/images/invador3.png","1","80","2","40","left","70","1","896","0.0978663759058974","0","0","2","0","do not exclude"
"1","259","0","../static/images/invador3.png","1","80","2","40","right","74","1","946","0.347347889064161","0","0","2","0","do not exclude"
"1","260","0","../static/images/invador1.png","3","80","8","10","right","70","-1","972","0.477078275906458","0","0","2","0","do not exclude"
"1","261","0","../static/images/invador3.png","1","80","2","40","right","74","1","860","-0.0817603135680523","0","0","2","0","do not exclude"
"1","262","0","../static/images/invador4.png","2","20","2","10","left","70","1","423","-2.26222873857128","1","0","2","0","do not exclude"
"1","263","0","../static/images/invador3.png","1","80","2","40","right","74","1","529","-1.73332793067576","1","0","2","0","do not exclude"
"1","264","0","../static/images/invador3.png","1","80","2","40","left","70","1","435","-2.20235317541329","1","0","2","0","do not exclude"
"1","265","0","../static/images/invador2.png","4","20","8","2.5","left","70","1","567","-1.54372198067548","1","0","2","0","do not exclude"
"1","266","0","../static/images/invador3.png","1","80","2","40","right","74","1","988","0.556912360117102","0","0","2","0","do not exclude"
"1","267","0","../static/images/invador3.png","1","80","2","40","left","70","1","1048","0.856290175907019","0","0","2","0","do not exclude"
"1","268","0","../static/images/invador1.png","3","80","8","10","right","70","-1","1072","0.976041302222985","0","0","2","0","do not exclude"
"1","269","0","../static/images/invador3.png","1","80","2","40","left","70","1","895","0.0928767456427322","0","0","2","0","do not exclude"
"1","270","0","../static/images/invador3.png","1","80","2","40","right","74","1","970","0.467099015380127","0","0","2","0","do not exclude"
"1","271","0","../static/images/invador2.png","4","20","8","2.5","left","74","-1","1251","1.86918511932957","0","0","2","0","do not exclude"
"1","272","0","../static/images/invador4.png","2","20","2","10","right","70","-1","1023","0.731549419327887","0","0","2","0","do not exclude"
"1","273","0","../static/images/invador3.png","1","80","2","40","right","74","1","860","-0.0817603135680523","0","0","2","0","do not exclude"
"1","274","0","../static/images/invador3.png","1","80","2","40","right","74","1","977","0.502026427222284","0","0","2","0","do not exclude"
"1","275","0","../static/images/invador2.png","4","20","8","2.5","left","74","-1","994","0.586850141696094","0","0","2","0","do not exclude"
"1","276","0","../static/images/invador1.png","3","80","8","10","left","70","1","609","-1.33415750962254","1","0","2","0","do not exclude"
"1","277","0","../static/images/invador4.png","2","20","2","10","right","70","-1","1060","0.916165739065002","0","0","2","0","do not exclude"
"1","278","0","../static/images/invador3.png","1","80","2","40","left","70","1","518","-1.78821386357058","1","0","2","0","do not exclude"
"1","279","0","../static/images/invador3.png","1","80","2","40","right","74","1","1043","0.831342024591192","2","0","2","0","do not exclude"
"1","280","0","../static/images/invador3.png","1","80","2","40","left","70","1","874","-0.0119054898837385","0","0","2","0","do not exclude"
"1","281","0","../static/images/invador3.png","1","80","2","40","right","70","-1","559","-1.5836390227808","2","0","2","0","do not exclude"
"1","282","0","../static/images/invador3.png","1","80","2","40","right","74","1","481","-1.97283018330769","1","0","2","0","do not exclude"
"1","283","0","../static/images/invador1.png","3","80","8","10","right","70","-1","1107","1.15067836143377","0","0","2","0","do not exclude"
"1","284","0","../static/images/invador4.png","2","20","2","10","left","74","-1","1090","1.06585464695996","0","0","2","0","do not exclude"
"1","285","0","../static/images/invador2.png","4","20","8","2.5","left","74","-1","1134","1.28539837853923","0","0","2","0","do not exclude"
"1","286","0","../static/images/invador3.png","1","80","2","40","right","70","-1","1012","0.676663486433069","2","0","2","0","do not exclude"
"1","287","0","../static/images/invador3.png","1","80","2","40","right","74","1","508","-1.83811016620223","1","0","2","0","do not exclude"
"1","288","0","../static/images/invador3.png","1","80","2","40","right","74","1","1027","0.751507940380548","0","0","2","0","do not exclude"
"1","289","0","../static/images/invador4.png","2","20","2","10","right","70","-1","946","0.347347889064161","0","0","2","0","do not exclude"
"1","290","0","../static/images/invador3.png","1","80","2","40","left","70","1","818","-0.291324784620994","0","0","2","0","do not exclude"
"1","291","0","../static/images/invador1.png","3","80","8","10","left","74","-1","969","0.462109385116962","0","0","2","0","do not exclude"
"1","292","0","../static/images/invador3.png","1","80","2","40","left","70","1","950","0.367306410116822","0","0","2","0","do not exclude"
"1","293","0","../static/images/invador2.png","4","20","8","2.5","right","70","-1","892","0.0779078548532363","0","0","2","0","do not exclude"
"1","294","0","../static/images/invador3.png","1","80","2","40","right","74","1","682","-0.969914500411471","1","0","2","0","do not exclude"
"1","295","0","../static/images/invador4.png","2","20","2","10","left","74","-1","914","0.187679720642872","0","0","2","0","do not exclude"
"1","296","0","../static/images/invador2.png","4","20","8","2.5","left","74","-1","1138","1.30535689959189","0","0","2","0","do not exclude"
"1","297","0","../static/images/invador1.png","3","80","8","10","left","74","-1","882","0.0280115522215836","0","0","2","0","do not exclude"
"1","298","0","../static/images/invador3.png","1","80","2","40","right","74","1","908","0.157741939063881","0","0","2","0","do not exclude"
"1","299","0","../static/images/invador3.png","1","80","2","40","left","70","1","936","0.297451586432508","0","0","2","0","do not exclude"
"1","300","0","../static/images/invador3.png","1","80","2","40","right","74","1","918","0.207638241695533","0","0","2","0","do not exclude"
"1","301","0","../static/images/invador1.png","3","80","8","10","right","70","-1","879","0.0130426614320878","0","0","2","0","do not exclude"
"1","302","0","../static/images/invador3.png","1","80","2","40","right","74","1","959","0.41221308248531","0","0","2","0","do not exclude"
"1","303","0","../static/images/invador3.png","1","80","2","40","right","70","-1","463","-2.06264352804466","2","0","2","0","do not exclude"
"1","304","0","../static/images/invador2.png","4","20","8","2.5","left","74","-1","1019","0.711590898275226","0","0","2","0","do not exclude"
"1","305","0","../static/images/invador3.png","1","80","2","40","right","74","1","997","0.60181903248559","0","0","2","0","do not exclude"
"1","306","0","../static/images/invador4.png","2","20","2","10","right","70","-1","898","0.107845636432228","0","0","2","0","do not exclude"
"1","307","0","../static/images/invador3.png","1","80","2","40","right","74","1","1129","1.26045022722341","0","0","2","0","do not exclude"
"1","308","0","../static/images/invador2.png","4","20","8","2.5","right","70","-1","812","-0.321262566199985","2","0","2","0","do not exclude"
"1","309","0","../static/images/invador1.png","3","80","8","10","left","74","-1","1117","1.20057466406542","0","0","2","0","do not exclude"
"1","310","0","../static/images/invador3.png","1","80","2","40","left","70","1","953","0.382275300906318","0","0","2","0","do not exclude"
"1","311","0","../static/images/invador3.png","1","80","2","40","left","70","1","1082","1.02593760485464","0","0","2","0","do not exclude"
"1","312","0","../static/images/invador4.png","2","20","2","10","left","74","-1","957","0.402233821958979","0","0","2","0","do not exclude"
"1","313","0","../static/images/invador3.png","1","80","2","40","right","74","1","965","0.442150864064301","0","0","2","0","do not exclude"
"1","314","0","../static/images/invador3.png","1","80","2","40","left","70","1","844","-0.161594397778697","0","0","2","0","do not exclude"
"1","315","0","../static/images/invador2.png","4","20","8","2.5","right","70","-1","1132","1.2754191180129","0","0","2","0","do not exclude"
"1","316","0","../static/images/invador3.png","1","80","2","40","right","74","1","520","-1.77823460304424","1","0","2","0","do not exclude"
"1","317","0","../static/images/invador3.png","1","80","2","40","left","70","1","868","-0.0418432714627302","0","0","2","0","do not exclude"
"1","318","0","../static/images/invador4.png","2","20","2","10","left","74","-1","892","0.0779078548532363","0","0","2","0","do not exclude"
"1","319","0","../static/images/invador3.png","1","80","2","40","right","74","1","680","-0.979893760937801","1","0","2","0","do not exclude"
"1","320","0","../static/images/invador3.png","1","80","2","40","right","74","1","485","-1.95287166225503","1","0","2","0","do not exclude"
"1","321","0","../static/images/invador1.png","3","80","8","10","right","70","-1","894","0.0878871153795669","0","0","2","0","do not exclude"
"1","322","0","../static/images/invador3.png","1","80","2","40","left","70","1","873","-0.0168951201469038","0","0","2","0","do not exclude"
"1","323","0","../static/images/invador4.png","2","20","2","10","left","70","1","680","-0.979893760937801","1","0","2","0","do not exclude"
"1","324","0","../static/images/invador3.png","1","80","2","40","left","70","1","468","-2.03769537672884","1","0","2","0","do not exclude"
"1","325","0","../static/images/invador2.png","4","20","8","2.5","right","70","-1","989","0.561901990380268","0","0","2","0","do not exclude"
"1","326","0","../static/images/invador1.png","3","80","8","10","right","70","-1","489","-1.93291314120237","2","0","2","0","do not exclude"
"1","327","0","../static/images/invador3.png","1","80","2","40","left","70","1","933","0.282482695643012","0","0","2","0","do not exclude"
"1","328","0","../static/images/invador3.png","1","80","2","40","right","74","1","536","-1.6984005188336","1","0","2","0","do not exclude"
"1","329","0","../static/images/invador3.png","1","80","2","40","right","74","1","1046","0.846310915380688","0","0","2","0","do not exclude"
"1","330","0","../static/images/invador3.png","1","80","2","40","left","70","1","1066","0.946103520643994","0","0","2","0","do not exclude"
"1","331","0","../static/images/invador4.png","2","20","2","10","right","70","-1","1116","1.19558503380226","0","0","2","0","do not exclude"
"1","332","0","../static/images/invador1.png","3","80","8","10","left","70","NaN","NaN","NaN","0","1","2","0","do not exclude"
"1","333","0","../static/images/invador3.png","1","80","2","40","left","74","-1","849","-0.13664624646287","2","0","2","0","do not exclude"
"1","334","0","../static/images/invador2.png","4","20","8","2.5","right","74","1","1022","0.726559789064722","0","0","2","0","do not exclude"
"1","335","0","../static/images/invador3.png","1","80","2","40","left","70","1","775","-0.5058788859371","0","0","2","0","do not exclude"
"1","336","0","../static/images/invador4.png","2","20","2","10","right","70","-1","946","0.347347889064161","0","0","2","0","do not exclude"
"1","337","0","../static/images/invador3.png","1","80","2","40","left","70","1","941","0.322399737748335","0","0","2","0","do not exclude"
"1","338","0","../static/images/invador3.png","1","80","2","40","left","70","1","887","0.05295970353741","0","0","2","0","do not exclude"
"1","339","0","../static/images/invador1.png","3","80","8","10","right","70","-1","855","-0.106708464883879","2","0","2","0","do not exclude"
"1","340","0","../static/images/invador3.png","1","80","2","40","right","74","1","1141","1.32032579038139","0","0","2","0","do not exclude"
"1","341","0","../static/images/invador3.png","1","80","2","40","left","70","1","897","0.102856006169063","0","0","2","0","do not exclude"
"1","342","0","../static/images/invador2.png","4","20","8","2.5","right","74","1","503","-1.86305831751805","1","0","2","0","do not exclude"
"1","343","0","../static/images/invador3.png","1","80","2","40","right","74","1","1004","0.636746444327747","0","0","2","0","do not exclude"
"1","344","0","../static/images/invador4.png","2","20","2","10","right","70","-1","929","0.262524174590351","0","0","2","0","do not exclude"
"1","345","0","../static/images/invador3.png","1","80","2","40","left","70","1","1032","0.776456091696374","0","0","2","0","do not exclude"
"1","346","0","../static/images/invador2.png","4","20","8","2.5","left","74","-1","1117","1.20057466406542","0","0","2","0","do not exclude"
"1","347","0","../static/images/invador3.png","1","80","2","40","left","70","1","923","0.23258639301136","0","0","2","0","do not exclude"
"1","348","0","../static/images/invador1.png","3","80","8","10","left","74","-1","1059","0.911176108801837","0","0","2","0","do not exclude"
"1","349","0","../static/images/invador3.png","1","80","2","40","right","74","1","849","-0.13664624646287","0","0","2","0","do not exclude"
"1","350","0","../static/images/invador2.png","4","20","8","2.5","left","74","-1","976","0.497036796959119","0","0","2","0","do not exclude"
"1","351","0","../static/images/invador3.png","1","80","2","40","right","74","1","1082","1.02593760485464","0","0","2","0","do not exclude"
"1","352","0","../static/images/invador1.png","3","80","8","10","right","74","1","644","-1.15952045041175","1","0","2","0","do not exclude"
"1","353","0","../static/images/invador3.png","1","80","2","40","right","74","1","844","-0.161594397778697","0","0","2","0","do not exclude"
"1","354","0","../static/images/invador3.png","1","80","2","40","right","74","1","803","-0.366169238568473","0","0","2","0","do not exclude"
"1","355","0","../static/images/invador4.png","2","20","2","10","left","70","1","441","-2.1724153938343","1","0","2","0","do not exclude"
"1","356","0","../static/images/invador3.png","1","80","2","40","left","70","1","963","0.432171603537971","0","0","2","0","do not exclude"
"1","357","0","../static/images/invador3.png","1","80","2","40","left","70","1","523","-1.76326571225475","1","0","2","0","do not exclude"
"1","358","0","../static/images/invador3.png","1","80","2","40","left","70","1","833","-0.216480330673515","0","0","2","0","do not exclude"
"1","359","0","../static/images/invador3.png","1","80","2","40","left","70","1","812","-0.321262566199985","0","0","2","0","do not exclude"
"1","360","0","../static/images/invador2.png","4","20","8","2.5","right","70","-1","1132","1.2754191180129","0","0","2","0","do not exclude"
"1","361","0","../static/images/invador1.png","3","80","8","10","right","74","1","1137","1.30036726932873","0","0","2","0","do not exclude"
"1","362","0","../static/images/invador3.png","1","80","2","40","left","70","1","462","-2.06763315830783","1","0","2","0","do not exclude"
"1","363","0","../static/images/invador4.png","2","20","2","10","left","70","1","481","-1.97283018330769","1","0","2","0","do not exclude"
"1","364","0","../static/images/invador3.png","1","80","2","40","left","74","-1","936","0.297451586432508","0","0","2","0","do not exclude"
"1","365","0","../static/images/invador3.png","1","80","2","40","right","74","1","1022","0.726559789064722","0","0","2","0","do not exclude"
"1","366","0","../static/images/invador3.png","1","80","2","40","right","74","1","955","0.392254561432648","0","0","2","0","do not exclude"
"1","367","0","../static/images/invador2.png","4","20","8","2.5","right","70","-1","988","0.556912360117102","0","0","2","0","do not exclude"
"1","368","0","../static/images/invador1.png","3","80","8","10","right","70","-1","1075","0.991010193012481","0","0","2","0","do not exclude"
"1","369","0","../static/images/invador4.png","2","20","2","10","right","70","-1","1136","1.29537763906556","0","0","2","0","do not exclude"
"1","370","0","../static/images/invador3.png","1","80","2","40","right","74","1","939","0.312420477222004","0","0","2","0","do not exclude"
"1","371","0","../static/images/invador1.png","3","80","8","10","left","74","-1","465","-2.05266426751833","2","0","2","0","do not exclude"
"1","372","0","../static/images/invador3.png","1","80","2","40","right","74","1","841","-0.176563288568193","0","0","2","0","do not exclude"
"1","373","0","../static/images/invador3.png","1","80","2","40","left","74","-1","497","-1.89299609909705","2","0","2","0","do not exclude"
"1","374","0","../static/images/invador2.png","4","20","8","2.5","right","70","-1","1047","0.851300545643853","0","0","2","0","do not exclude"
"1","375","0","../static/images/invador3.png","1","80","2","40","right","70","-1","593","-1.41399159383318","2","0","2","0","do not exclude"
"1","376","0","../static/images/invador3.png","1","80","2","40","right","74","1","873","-0.0168951201469038","0","0","2","0","do not exclude"
"1","377","0","../static/images/invador4.png","2","20","2","10","left","70","1","566","-1.54871161093864","1","0","2","0","do not exclude"
"1","378","0","../static/images/invador3.png","1","80","2","40","right","74","1","822","-0.271366263568333","0","0","2","0","do not exclude"
"1","379","0","../static/images/invador4.png","2","20","2","10","left","74","-1","604","-1.35910566093836","2","0","2","0","do not exclude"
"1","380","0","../static/images/invador3.png","1","80","2","40","right","74","1","550","-1.62854569514929","1","0","2","0","do not exclude"
"1","381","0","../static/images/invador3.png","1","80","2","40","right","74","1","896","0.0978663759058974","0","0","2","0","do not exclude"
"1","382","0","../static/images/invador2.png","4","20","8","2.5","right","70","-1","1086","1.0458961259073","0","0","2","0","do not exclude"
"1","383","0","../static/images/invador3.png","1","80","2","40","right","74","1","503","-1.86305831751805","1","0","2","0","do not exclude"
"1","384","0","../static/images/invador1.png","3","80","8","10","right","74","1","517","-1.79320349383374","1","0","2","0","do not exclude"
"1","385","0","../static/images/invador3.png","1","80","2","40","right","74","1","787","-0.446003322779117","0","0","2","0","do not exclude"
"1","386","0","../static/images/invador2.png","4","20","8","2.5","left","74","-1","994","0.586850141696094","0","0","2","0","do not exclude"
"1","387","0","../static/images/invador1.png","3","80","8","10","left","74","-1","715","-0.805256701727017","2","0","2","0","do not exclude"
"1","388","0","../static/images/invador3.png","1","80","2","40","left","70","1","866","-0.0518225319890607","0","0","2","0","do not exclude"
"1","389","0","../static/images/invador3.png","1","80","2","40","right","74","1","870","-0.0318640109363996","0","0","2","0","do not exclude"
"1","390","0","../static/images/invador4.png","2","20","2","10","left","74","-1","907","0.152752308800715","0","0","2","0","do not exclude"
"1","391","0","../static/images/invador3.png","1","80","2","40","right","74","1","853","-0.116687725410209","0","0","2","0","do not exclude"
"1","392","0","../static/images/invador1.png","3","80","8","10","right","70","-1","1007","0.651715335117243","0","0","2","0","do not exclude"
"1","393","0","../static/images/invador4.png","2","20","2","10","left","74","-1","969","0.462109385116962","0","0","2","0","do not exclude"
"1","394","0","../static/images/invador3.png","1","80","2","40","right","74","1","611","-1.3241782490962","1","0","2","0","do not exclude"
"1","395","0","../static/images/invador3.png","1","80","2","40","right","74","1","513","-1.8131620148864","1","0","2","0","do not exclude"
"1","396","0","../static/images/invador3.png","1","80","2","40","right","74","1","1007","0.651715335117243","0","0","2","0","do not exclude"
"1","397","0","../static/images/invador3.png","1","80","2","40","right","70","-1","438","-2.1873842846238","2","0","2","0","do not exclude"
"1","398","0","../static/images/invador2.png","4","20","8","2.5","left","74","-1","976","0.497036796959119","0","0","2","0","do not exclude"
"1","399","0","../static/images/invador3.png","1","80","2","40","right","74","1","921","0.222607132485029","0","0","2","0","do not exclude"
"1","400","0","../static/images/invador3.png","1","80","2","40","left","70","1","888","0.0579493338005753","0","0","2","0","do not exclude"
"1","401","0","../static/images/invador2.png","4","20","8","2.5","right","70","-1","1046","0.846310915380688","0","0","2","0","do not exclude"
"1","402","0","../static/images/invador3.png","1","80","2","40","right","74","1","943","0.332378998274665","0","0","2","0","do not exclude"
"1","403","0","../static/images/invador3.png","1","80","2","40","left","70","1","944","0.33736862853783","0","0","2","0","do not exclude"
"1","404","0","../static/images/invador4.png","2","20","2","10","right","70","-1","434","-2.20734280567646","2","0","2","0","do not exclude"
"1","405","0","../static/images/invador1.png","3","80","8","10","left","70","1","443","-2.16243613330797","1","0","2","0","do not exclude"
"1","406","0","../static/images/invador1.png","3","80","8","10","left","74","-1","920","0.217617502221864","0","0","2","0","do not exclude"
"1","407","0","../static/images/invador3.png","1","80","2","40","right","74","1","1059","0.911176108801837","0","0","2","0","do not exclude"
"1","408","0","../static/images/invador3.png","1","80","2","40","right","74","1","1226","1.74444436275044","0","0","2","0","do not exclude"
"1","409","0","../static/images/invador4.png","2","20","2","10","left","74","-1","961","0.42219234301164","0","0","2","0","do not exclude"
"1","410","0","../static/images/invador2.png","4","20","8","2.5","left","74","-1","1126","1.24548133643391","0","0","2","0","do not exclude"
"1","411","0","../static/images/invador3.png","1","80","2","40","left","70","1","876","-0.001926229357408","0","0","2","0","do not exclude"
"1","412","0","../static/images/invador3.png","1","80","2","40","left","74","-1","650","-1.12958266883276","2","0","2","0","do not exclude"
"1","413","0","../static/images/invador4.png","2","20","2","10","left","74","-1","915","0.192669350906038","0","0","2","0","do not exclude"
"1","414","0","../static/images/invador3.png","1","80","2","40","right","74","1","971","0.472088645643293","0","0","2","0","do not exclude"
"1","415","0","../static/images/invador1.png","3","80","8","10","left","70","1","532","-1.71835903988626","1","0","2","0","do not exclude"
"1","416","0","../static/images/invador3.png","1","80","2","40","left","70","1","872","-0.0218847504100691","0","0","2","0","do not exclude"
"1","417","0","../static/images/invador2.png","4","20","8","2.5","right","70","-1","1202","1.62469323643447","0","0","2","0","do not exclude"
"1","418","0","../static/images/invador3.png","1","80","2","40","left","70","1","852","-0.121677355673375","0","0","2","0","do not exclude"
"1","419","0","../static/images/invador3.png","1","80","2","40","left","70","1","963","0.432171603537971","0","0","2","0","do not exclude"
"1","420","0","../static/images/invador3.png","1","80","2","40","right","74","1","824","-0.261387003042002","0","0","2","0","do not exclude"
"1","421","0","../static/images/invador2.png","4","20","8","2.5","right","70","-1","968","0.457119754853797","0","0","2","0","do not exclude"
"1","422","0","../static/images/invador4.png","2","20","2","10","left","74","-1","558","-1.58862865304396","2","0","2","0","do not exclude"
"1","423","0","../static/images/invador3.png","1","80","2","40","left","70","1","900","0.117824896958559","0","0","2","0","do not exclude"
"1","424","0","../static/images/invador3.png","1","80","2","40","right","74","1","979","0.512005687748615","0","0","2","0","do not exclude"
"1","425","0","../static/images/invador3.png","1","80","2","40","right","74","1","892","0.0779078548532363","0","0","2","0","do not exclude"
"1","426","0","../static/images/invador1.png","3","80","8","10","left","74","-1","887","0.05295970353741","0","0","2","0","do not exclude"
"1","427","0","../static/images/invador3.png","1","80","2","40","left","70","1","847","-0.146625506989201","0","0","2","0","do not exclude"
"1","428","0","../static/images/invador1.png","3","80","8","10","left","74","-1","885","0.0429804430110794","0","0","2","0","do not exclude"
"1","429","0","../static/images/invador2.png","4","20","8","2.5","left","74","-1","1092","1.07583390748629","0","0","2","0","do not exclude"
"1","430","0","../static/images/invador3.png","1","80","2","40","left","70","1","992","0.576870881169763","0","0","2","0","do not exclude"
"1","431","0","../static/images/invador3.png","1","80","2","40","right","74","1","466","-2.04767463725517","1","0","2","0","do not exclude"
"1","432","0","../static/images/invador4.png","2","20","2","10","left","74","-1","651","-1.12459303856959","2","0","2","0","do not exclude"
"1","433","0","../static/images/invador3.png","1","80","2","40","left","70","1","560","-1.57864939251763","1","0","2","0","do not exclude"
"2","0","1","../static/images/invador4.png","3","80","8","10","left","70","1","958","0.665262630197593","0","0","2","1",">19 missed"
"2","1","1","../static/images/invador2.png","4","20","8","2.5","right","70","-1","792","-0.42710547943517","2","0","2","1",">19 missed"
"2","2","1","../static/images/invador2.png","4","20","8","2.5","right","74","NaN","NaN","NaN","0","1","2","1",">19 missed"
"2","3","1","../static/images/invador2.png","4","20","8","2.5","right","74","1","901","0.290172375685138","1","0","2","1",">19 missed"
"2","4","1","../static/images/invador2.png","4","20","8","2.5","right","70","-1","881","0.158561760066733","0","0","2","1",">19 missed"
"2","5","1","../static/images/invador1.png","2","20","2","10","right","74","1","1060","1.33647676985146","0","0","2","1",">19 missed"
"2","6","1","../static/images/invador3.png","1","80","2","40","left","74","-1","982","0.823195368939679","0","0","2","1",">19 missed"
"2","7","1","../static/images/invador4.png","3","80","8","10","right","70","-1","1285","2.81709619555852","0","0","2","1",">19 missed"
"2","8","1","../static/images/invador2.png","4","20","8","2.5","right","70","-1","897","0.263850252561457","0","0","2","1",">19 missed"
"2","9","1","../static/images/invador2.png","4","20","8","2.5","right","74","1","1157","1.97478825560072","0","0","2","1",">19 missed"
"2","10","1","../static/images/invador1.png","2","20","2","10","right","74","1","847","-0.0651762864845556","1","0","2","1",">19 missed"
"2","11","1","../static/images/invador2.png","4","20","8","2.5","right","74","NaN","NaN","NaN","0","1","2","1",">19 missed"
"2","12","1","../static/images/invador2.png","4","20","8","2.5","left","70","1","937","0.527071483798268","0","0","2","1",">19 missed"
"2","13","1","../static/images/invador3.png","1","80","2","40","right","74","1","1018","1.06009447705281","0","0","2","1",">19 missed"
"2","14","1","../static/images/invador2.png","4","20","8","2.5","left","74","-1","1272","2.73154929540655","2","0","2","1",">19 missed"
"2","15","1","../static/images/invador2.png","4","20","8","2.5","left","74","-1","1030","1.13906084642385","0","0","2","1",">19 missed"
"2","16","1","../static/images/invador1.png","2","20","2","10","left","70","1","872","0.0993369830384508","1","0","2","1",">19 missed"
"2","17","1","../static/images/invador4.png","3","80","8","10","left","74","-1","837","-0.130981594293758","0","0","2","1",">19 missed"
"2","18","1","../static/images/invador2.png","4","20","8","2.5","left","74","-1","1187","2.17220417902833","0","0","2","1",">19 missed"
"2","19","1","../static/images/invador3.png","1","80","2","40","right","74","1","679","-1.17070545767916","0","0","2","1",">19 missed"
"2","20","1","../static/images/invador2.png","4","20","8","2.5","left","74","-1","1062","1.3496378314133","0","0","2","1",">19 missed"
"2","21","1","../static/images/invador1.png","2","20","2","10","right","74","1","752","-0.69032671067198","1","0","2","1",">19 missed"
"2","22","1","../static/images/invador2.png","4","20","8","2.5","left","74","-1","865","0.053273267572009","0","0","2","1",">19 missed"
"2","23","1","../static/images/invador2.png","4","20","8","2.5","right","70","-1","745","-0.736390426138422","0","0","2","1",">19 missed"
"2","24","1","../static/images/invador2.png","4","20","8","2.5","right","74","NaN","NaN","NaN","2","1","2","1",">19 missed"
"2","25","1","../static/images/invador2.png","4","20","8","2.5","right","70","-1","808","-0.321816986940446","0","0","2","1",">19 missed"
"2","26","1","../static/images/invador4.png","3","80","8","10","right","70","-1","736","-0.795615203166704","0","0","2","1",">19 missed"
"2","27","1","../static/images/invador3.png","1","80","2","40","left","70","NaN","NaN","NaN","0","1","2","1",">19 missed"
"2","28","1","../static/images/invador3.png","1","80","2","40","right","74","NaN","NaN","NaN","0","1","2","1",">19 missed"
"2","29","1","../static/images/invador2.png","4","20","8","2.5","left","74","-1","997","0.921903330653483","0","0","2","1",">19 missed"
"2","30","1","../static/images/invador4.png","3","80","8","10","right","70","-1","707","-0.986450595813392","0","0","2","1",">19 missed"
"2","31","1","../static/images/invador2.png","4","20","8","2.5","left","74","-1","790","-0.44026654099701","0","0","2","1",">19 missed"
"2","32","1","../static/images/invador1.png","2","20","2","10","right","74","NaN","NaN","NaN","2","1","2","1",">19 missed"
"2","33","1","../static/images/invador2.png","4","20","8","2.5","left","70","1","984","0.83635643050152","1","0","2","1",">19 missed"
"2","34","1","../static/images/invador2.png","4","20","8","2.5","right","74","NaN","NaN","NaN","0","1","2","1",">19 missed"
"2","35","1","../static/images/invador4.png","3","80","8","10","right","70","-1","945","0.579715730045629","0","0","2","1",">19 missed"
"2","36","1","../static/images/invador2.png","4","20","8","2.5","right","70","-1","940","0.546813076141028","2","0","2","1",">19 missed"
"2","37","1","../static/images/invador3.png","1","80","2","40","right","74","1","707","-0.986450595813392","0","0","2","1",">19 missed"
"2","38","1","../static/images/invador1.png","2","20","2","10","left","70","1","763","-0.617940872081857","1","0","2","1",">19 missed"
"2","39","1","../static/images/invador2.png","4","20","8","2.5","left","74","-1","891","0.224367067875936","0","0","2","1",">19 missed"
"2","40","1","../static/images/invador2.png","4","20","8","2.5","left","74","-1","755","-0.670585118329219","2","0","2","1",">19 missed"
"2","41","1","../static/images/invador2.png","4","20","8","2.5","right","70","-1","662","-1.2825744809548","2","0","2","1",">19 missed"
"2","42","1","../static/images/invador2.png","4","20","8","2.5","left","70","NaN","NaN","NaN","0","1","2","1",">19 missed"
"2","43","1","../static/images/invador2.png","4","20","8","2.5","right","70","-1","1102","1.61285906265011","0","0","2","1",">19 missed"
"2","44","1","../static/images/invador2.png","4","20","8","2.5","left","74","-1","805","-0.341558579283206","0","0","2","1",">19 missed"
"2","45","1","../static/images/invador1.png","2","20","2","10","right","74","1","817","-0.262592209912163","0","0","2","1",">19 missed"
"2","46","1","../static/images/invador2.png","4","20","8","2.5","left","74","-1","1026","1.11273872330017","0","0","2","1",">19 missed"
"2","47","1","../static/images/invador4.png","3","80","8","10","right","70","-1","696","-1.05883643440351","0","0","2","1",">19 missed"
"2","48","1","../static/images/invador3.png","1","80","2","40","left","70","1","647","-1.38128244266861","0","0","2","1",">19 missed"
"2","49","1","../static/images/invador2.png","4","20","8","2.5","left","74","-1","884","0.178303352409494","0","0","2","1",">19 missed"
"2","50","1","../static/images/invador2.png","4","20","8","2.5","right","70","-1","813","-0.288914333035844","1","0","2","1",">19 missed"
"2","51","1","../static/images/invador4.png","3","80","8","10","right","74","1","1090","1.53389269327907","1","0","2","1",">19 missed"
"2","52","1","../static/images/invador1.png","2","20","2","10","left","70","1","892","0.230947598656856","0","0","2","1",">19 missed"
"2","53","1","../static/images/invador2.png","4","20","8","2.5","left","74","-1","872","0.0993369830384508","0","0","2","1",">19 missed"
"2","54","1","../static/images/invador3.png","1","80","2","40","right","74","1","725","-0.868001041756827","0","0","2","1",">19 missed"
"2","55","1","../static/images/invador2.png","4","20","8","2.5","right","74","1","928","0.467846706769985","1","0","2","1",">19 missed"
"2","56","1","../static/images/invador2.png","4","20","8","2.5","right","70","-1","826","-0.203367432883881","0","0","2","1",">19 missed"
"2","57","1","../static/images/invador2.png","4","20","8","2.5","left","74","-1","745","-0.736390426138422","0","0","2","1",">19 missed"
"2","58","1","../static/images/invador1.png","2","20","2","10","left","74","-1","677","-1.183866519241","0","0","2","1",">19 missed"
"2","59","1","../static/images/invador2.png","4","20","8","2.5","right","70","-1","759","-0.644262995205538","0","0","2","1",">19 missed"
"2","60","1","../static/images/invador2.png","4","20","8","2.5","right","70","-1","705","-0.999611657375232","1","0","2","1",">19 missed"
"2","61","1","../static/images/invador3.png","1","80","2","40","right","74","1","720","-0.900903695661428","0","0","2","1",">19 missed"
"2","62","1","../static/images/invador4.png","3","80","8","10","right","70","-1","829","-0.18362584054112","0","0","2","1",">19 missed"
"2","63","1","../static/images/invador1.png","2","20","2","10","left","70","1","1000","0.941644922996244","0","0","2","1",">19 missed"
"2","64","1","../static/images/invador4.png","3","80","8","10","left","74","-1","785","-0.473169194901612","0","0","2","1",">19 missed"
"2","65","1","../static/images/invador3.png","1","80","2","40","left","70","1","821","-0.236270086788482","2","0","2","1",">19 missed"
"2","66","1","../static/images/invador2.png","4","20","8","2.5","left","70","1","604","-1.66424526624818","1","0","2","1",">19 missed"
"2","67","1","../static/images/invador2.png","4","20","8","2.5","right","74","1","771","-0.565296625834495","1","0","2","1",">19 missed"
"2","68","1","../static/images/invador2.png","4","20","8","2.5","left","74","-1","1143","1.88266082466784","0","0","2","1",">19 missed"
"2","69","1","../static/images/invador2.png","4","20","8","2.5","right","70","-1","880","0.151981229285813","0","0","2","1",">19 missed"
"2","70","1","../static/images/invador2.png","4","20","8","2.5","left","74","-1","896","0.257269721780537","0","0","2","1",">19 missed"
"2","71","1","../static/images/invador3.png","1","80","2","40","right","74","1","655","-1.32863819642124","0","0","2","1",">19 missed"
"2","72","1","../static/images/invador4.png","3","80","8","10","right","70","-1","1054","1.29699358516594","0","0","2","1",">19 missed"
"2","73","1","../static/images/invador2.png","4","20","8","2.5","left","74","-1","856","-0.00595150945627329","0","0","2","1",">19 missed"
"2","74","1","../static/images/invador2.png","4","20","8","2.5","right","70","-1","791","-0.43368601021609","0","0","2","1",">19 missed"
"2","75","1","../static/images/invador2.png","4","20","8","2.5","right","74","NaN","NaN","NaN","1","1","2","1",">19 missed"
"2","76","1","../static/images/invador1.png","2","20","2","10","right","74","1","921","0.421782991303543","0","0","2","1",">19 missed"
"2","77","1","../static/images/invador2.png","4","20","8","2.5","left","70","NaN","NaN","NaN","0","1","2","1",">19 missed"
"2","78","1","../static/images/invador1.png","2","20","2","10","right","74","1","1116","1.70498649358299","0","0","2","1",">19 missed"
"2","79","1","../static/images/invador2.png","4","20","8","2.5","right","70","-1","911","0.355977683494341","0","0","2","1",">19 missed"
"2","80","1","../static/images/invador2.png","4","20","8","2.5","left","74","-1","813","-0.288914333035844","0","0","2","1",">19 missed"
"2","81","1","../static/images/invador4.png","3","80","8","10","left","74","-1","809","-0.315236456159525","1","0","2","1",">19 missed"
"2","82","1","../static/images/invador3.png","1","80","2","40","right","74","1","834","-0.150723186636519","0","0","2","1",">19 missed"
"2","83","1","../static/images/invador2.png","4","20","8","2.5","right","70","-1","804","-0.348139110064127","0","0","2","1",">19 missed"
"2","84","1","../static/images/invador4.png","3","80","8","10","left","74","-1","875","0.119078575381212","2","0","2","1",">19 missed"
"2","85","1","../static/images/invador2.png","4","20","8","2.5","left","74","-1","819","-0.249431148350323","0","0","2","1",">19 missed"
"2","86","1","../static/images/invador2.png","4","20","8","2.5","right","70","-1","908","0.33623609115158","0","0","2","1",">19 missed"
"2","87","1","../static/images/invador2.png","4","20","8","2.5","left","70","NaN","NaN","NaN","1","1","2","1",">19 missed"
"2","88","1","../static/images/invador3.png","1","80","2","40","right","74","1","820","-0.242850617569403","0","0","2","1",">19 missed"
"2","89","1","../static/images/invador2.png","4","20","8","2.5","left","74","-1","1018","1.06009447705281","1","0","2","1",">19 missed"
"2","90","1","../static/images/invador1.png","2","20","2","10","right","74","1","1070","1.40228207766066","2","0","2","1",">19 missed"
"2","91","1","../static/images/invador2.png","4","20","8","2.5","left","74","-1","791","-0.43368601021609","1","0","2","1",">19 missed"
"2","92","1","../static/images/invador1.png","2","20","2","10","left","70","1","1052","1.2838325236041","0","0","2","1",">19 missed"
"2","93","1","../static/images/invador2.png","4","20","8","2.5","left","74","-1","851","-0.0388541633608746","0","0","2","1",">19 missed"
"2","94","1","../static/images/invador3.png","1","80","2","40","left","70","1","806","-0.334978048502286","0","0","2","1",">19 missed"
"2","95","1","../static/images/invador4.png","3","80","8","10","right","70","-1","713","-0.94696741112787","0","0","2","1",">19 missed"
"2","96","1","../static/images/invador2.png","4","20","8","2.5","right","70","-1","711","-0.96012847268971","0","0","2","1",">19 missed"
"2","97","1","../static/images/invador2.png","4","20","8","2.5","right","70","-1","772","-0.558716095053575","2","0","2","1",">19 missed"
"2","98","1","../static/images/invador2.png","4","20","8","2.5","left","74","-1","717","-0.920645288004189","0","0","2","1",">19 missed"
"2","99","1","../static/images/invador2.png","4","20","8","2.5","left","74","-1","880","0.151981229285813","0","0","2","1",">19 missed"
"2","100","1","../static/images/invador2.png","4","20","8","2.5","right","70","-1","639","-1.43392668891597","2","0","2","1",">19 missed"
"2","101","1","../static/images/invador2.png","4","20","8","2.5","left","74","-1","777","-0.525813441148974","0","0","2","1",">19 missed"
"2","102","1","../static/images/invador3.png","1","80","2","40","right","74","1","854","-0.0191125710181138","2","0","2","1",">19 missed"
"2","103","1","../static/images/invador4.png","3","80","8","10","left","74","-1","746","-0.729809895357502","0","0","2","1",">19 missed"
"2","104","1","../static/images/invador1.png","2","20","2","10","left","70","1","915","0.382299806618022","0","0","2","1",">19 missed"
"2","105","1","../static/images/invador2.png","4","20","8","2.5","right","70","-1","1024","1.09957766173833","0","0","2","1",">19 missed"
"2","106","1","../static/images/invador4.png","3","80","8","10","right","70","-1","708","-0.979870065032471","0","0","2","1",">19 missed"
"2","107","1","../static/images/invador1.png","2","20","2","10","right","74","1","760","-0.637682464424618","0","0","2","1",">19 missed"
"2","108","1","../static/images/invador2.png","4","20","8","2.5","right","70","-1","919","0.408621929741703","0","0","2","1",">19 missed"
"2","109","1","../static/images/invador3.png","1","80","2","40","right","74","1","787","-0.460008133339771","0","0","2","1",">19 missed"
"2","110","1","../static/images/invador2.png","4","20","8","2.5","left","74","-1","792","-0.42710547943517","1","0","2","1",">19 missed"
"2","111","1","../static/images/invador2.png","4","20","8","2.5","left","74","-1","913","0.369138745056181","2","0","2","1",">19 missed"
"2","112","1","../static/images/invador1.png","2","20","2","10","left","70","1","810","-0.308655925378605","0","0","2","1",">19 missed"
"2","113","1","../static/images/invador2.png","4","20","8","2.5","left","74","-1","964","0.704745814883114","0","0","2","1",">19 missed"
"2","114","1","../static/images/invador2.png","4","20","8","2.5","right","70","-1","785","-0.473169194901612","0","0","2","1",">19 missed"
"2","115","1","../static/images/invador3.png","1","80","2","40","left","70","1","874","0.112498044600291","0","0","2","1",">19 missed"
"2","116","1","../static/images/invador2.png","4","20","8","2.5","right","70","-1","1352","3.25799175788017","0","0","2","1",">19 missed"
"2","117","1","../static/images/invador4.png","3","80","8","10","left","74","-1","721","-0.894323164880508","0","0","2","1",">19 missed"
"2","118","1","../static/images/invador2.png","4","20","8","2.5","right","70","-1","823","-0.223109025226642","1","0","2","1",">19 missed"
"2","119","1","../static/images/invador2.png","4","20","8","2.5","right","70","-1","721","-0.894323164880508","0","0","2","1",">19 missed"
"2","120","1","../static/images/invador1.png","2","20","2","10","left","74","-1","878","0.138820167723972","2","0","2","1",">19 missed"
"2","121","1","../static/images/invador3.png","1","80","2","40","right","74","1","789","-0.44684707177793","1","0","2","1",">19 missed"
"2","122","1","../static/images/invador2.png","4","20","8","2.5","left","74","-1","894","0.244108660218696","0","0","2","1",">19 missed"
"2","123","1","../static/images/invador2.png","4","20","8","2.5","right","70","-1","694","-1.07199749596535","0","0","2","1",">19 missed"
"2","124","1","../static/images/invador2.png","4","20","8","2.5","left","74","-1","820","-0.242850617569403","0","0","2","1",">19 missed"
"2","125","1","../static/images/invador4.png","3","80","8","10","right","70","-1","866","0.0598537983529293","0","0","2","1",">19 missed"
"2","126","1","../static/images/invador2.png","4","20","8","2.5","right","70","-1","741","-0.762712549262103","0","0","2","1",">19 missed"
"2","127","1","../static/images/invador3.png","1","80","2","40","right","74","1","804","-0.348139110064127","1","0","2","1",">19 missed"
"2","128","1","../static/images/invador2.png","4","20","8","2.5","right","70","-1","816","-0.269172740693084","2","0","2","1",">19 missed"
"2","129","1","../static/images/invador1.png","2","20","2","10","left","70","1","744","-0.742970956919342","0","0","2","1",">19 missed"
"2","130","1","../static/images/invador2.png","4","20","8","2.5","left","70","1","780","-0.506071848806213","1","0","2","1",">19 missed"
"2","131","1","../static/images/invador4.png","3","80","8","10","right","70","-1","1480","4.10029969783797","0","0","2","1",">19 missed"
"2","132","1","../static/images/invador2.png","4","20","8","2.5","right","74","NaN","NaN","NaN","0","1","2","1",">19 missed"
"2","133","1","../static/images/invador4.png","3","80","8","10","right","70","-1","835","-0.144142655855599","0","0","2","1",">19 missed"
"2","134","1","../static/images/invador2.png","4","20","8","2.5","left","70","NaN","NaN","NaN","1","1","2","1",">19 missed"
"2","135","1","../static/images/invador2.png","4","20","8","2.5","left","74","-1","940","0.546813076141028","0","0","2","1",">19 missed"
"2","136","1","../static/images/invador2.png","4","20","8","2.5","right","70","-1","816","-0.269172740693084","0","0","2","1",">19 missed"
"2","137","1","../static/images/invador3.png","1","80","2","40","right","74","1","696","-1.05883643440351","2","0","2","1",">19 missed"
"2","138","1","../static/images/invador2.png","4","20","8","2.5","right","70","-1","941","0.553393606921948","1","0","2","1",">19 missed"
"2","139","1","../static/images/invador1.png","2","20","2","10","right","74","1","736","-0.795615203166704","1","0","2","1",">19 missed"
"2","140","1","../static/images/invador3.png","1","80","2","40","right","74","1","769","-0.578457687396336","2","0","2","1",">19 missed"
"2","141","1","../static/images/invador2.png","4","20","8","2.5","left","74","-1","802","-0.361300171625967","0","0","2","1",">19 missed"
"2","142","1","../static/images/invador2.png","4","20","8","2.5","left","74","-1","681","-1.15754439611732","0","0","2","1",">19 missed"
"2","143","1","../static/images/invador2.png","4","20","8","2.5","left","74","-1","721","-0.894323164880508","0","0","2","1",">19 missed"
"2","144","1","../static/images/invador4.png","3","80","8","10","left","74","-1","591","-1.74979216640014","0","0","2","1",">19 missed"
"2","145","1","../static/images/invador1.png","2","20","2","10","right","70","-1","767","-0.591618748958176","1","0","2","1",">19 missed"
"2","146","1","../static/images/invador2.png","4","20","8","2.5","left","74","-1","947","0.59287679160747","1","0","2","1",">19 missed"
"2","147","1","../static/images/invador3.png","1","80","2","40","right","74","1","755","-0.670585118329219","0","0","2","1",">19 missed"
"2","148","1","../static/images/invador2.png","4","20","8","2.5","left","74","-1","1268","2.70522717228287","0","0","2","1",">19 missed"
"2","149","1","../static/images/invador4.png","3","80","8","10","left","74","-1","728","-0.848259449414066","0","0","2","1",">19 missed"
"2","150","1","../static/images/invador2.png","4","20","8","2.5","left","74","-1","726","-0.861420510975907","0","0","2","1",">19 missed"
"2","151","1","../static/images/invador1.png","2","20","2","10","left","70","1","765","-0.604779810520017","0","0","2","1",">19 missed"
"2","152","1","../static/images/invador2.png","4","20","8","2.5","left","74","-1","923","0.434944052865384","0","0","2","1",">19 missed"
"2","153","1","../static/images/invador2.png","4","20","8","2.5","left","74","-1","719","-0.907484226442348","2","0","2","1",">19 missed"
"2","154","1","../static/images/invador4.png","3","80","8","10","right","70","-1","632","-1.47999040438241","0","0","2","1",">19 missed"
"2","155","1","../static/images/invador3.png","1","80","2","40","left","70","1","765","-0.604779810520017","0","0","2","1",">19 missed"
"2","156","1","../static/images/invador2.png","4","20","8","2.5","left","74","-1","1252","2.59993867978815","0","0","2","1",">19 missed"
"2","157","1","../static/images/invador2.png","4","20","8","2.5","right","70","-1","759","-0.644262995205538","0","0","2","1",">19 missed"
"2","158","1","../static/images/invador2.png","4","20","8","2.5","right","70","-1","709","-0.973289534251551","0","0","2","1",">19 missed"
"2","159","1","../static/images/invador1.png","2","20","2","10","left","70","1","1225","2.4222643487033","0","0","2","1",">19 missed"
"2","160","1","../static/images/invador2.png","4","20","8","2.5","left","74","-1","1022","1.08641660017649","2","0","2","1",">19 missed"
"2","161","1","../static/images/invador2.png","4","20","8","2.5","right","70","-1","614","-1.59843995843898","0","0","2","1",">19 missed"
"2","162","1","../static/images/invador2.png","4","20","8","2.5","left","74","-1","692","-1.0851585575272","0","0","2","1",">19 missed"
"2","163","1","../static/images/invador2.png","4","20","8","2.5","left","74","-1","780","-0.506071848806213","0","0","2","1",">19 missed"
"2","164","1","../static/images/invador3.png","1","80","2","40","right","70","-1","808","-0.321816986940446","0","0","2","1",">19 missed"
"2","165","1","../static/images/invador4.png","3","80","8","10","right","70","-1","698","-1.04567537284167","0","0","2","1",">19 missed"
"2","166","1","../static/images/invador1.png","2","20","2","10","left","70","1","802","-0.361300171625967","0","0","2","1",">19 missed"
"2","167","1","../static/images/invador2.png","4","20","8","2.5","left","74","-1","868","0.0730148599147698","2","0","2","1",">19 missed"
"2","168","1","../static/images/invador1.png","2","20","2","10","left","70","1","778","-0.519232910368053","0","0","2","1",">19 missed"
"2","169","1","../static/images/invador2.png","4","20","8","2.5","right","70","-1","770","-0.571877156615415","0","0","2","1",">19 missed"
"2","170","1","../static/images/invador4.png","3","80","8","10","right","70","-1","919","0.408621929741703","1","0","2","1",">19 missed"
"2","171","1","../static/images/invador2.png","4","20","8","2.5","left","74","-1","659","-1.30231607329756","0","0","2","1",">19 missed"
"2","172","1","../static/images/invador2.png","4","20","8","2.5","right","70","-1","645","-1.39444350423045","1","0","2","1",">19 missed"
"2","173","1","../static/images/invador3.png","1","80","2","40","left","70","1","1088","1.52073163171723","1","0","2","1",">19 missed"
"2","174","1","../static/images/invador2.png","4","20","8","2.5","left","74","-1","849","-0.0520152249227151","0","0","2","1",">19 missed"
"2","175","1","../static/images/invador2.png","4","20","8","2.5","left","74","-1","855","-0.0125320402371935","2","0","2","1",">19 missed"
"2","176","1","../static/images/invador2.png","4","20","8","2.5","left","74","-1","790","-0.44026654099701","0","0","2","1",">19 missed"
"2","177","1","../static/images/invador1.png","2","20","2","10","left","70","1","818","-0.256011679131243","2","0","2","1",">19 missed"
"2","178","1","../static/images/invador3.png","1","80","2","40","right","74","1","852","-0.0322736325799543","0","0","2","1",">19 missed"
"2","179","1","../static/images/invador2.png","4","20","8","2.5","right","70","-1","938","0.533652014579188","0","0","2","1",">19 missed"
"2","180","1","../static/images/invador2.png","4","20","8","2.5","right","70","-1","665","-1.26283288861204","0","0","2","1",">19 missed"
"2","181","1","../static/images/invador4.png","3","80","8","10","left","74","-1","565","-1.92088596670407","0","0","2","1",">19 missed"
"2","182","1","../static/images/invador4.png","3","80","8","10","left","74","-1","569","-1.89456384358039","0","0","2","1",">19 missed"
"2","183","1","../static/images/invador2.png","4","20","8","2.5","left","74","-1","755","-0.670585118329219","0","0","2","1",">19 missed"
"2","184","1","../static/images/invador1.png","2","20","2","10","left","70","1","740","-0.769293080043023","0","0","2","1",">19 missed"
"2","185","1","../static/images/invador2.png","4","20","8","2.5","right","70","-1","745","-0.736390426138422","0","0","2","1",">19 missed"
"2","186","1","../static/images/invador3.png","1","80","2","40","right","74","1","883","0.171722821628574","2","0","2","1",">19 missed"
"2","187","1","../static/images/invador2.png","4","20","8","2.5","right","70","-1","849","-0.0520152249227151","0","0","2","1",">19 missed"
"2","188","1","../static/images/invador2.png","4","20","8","2.5","left","74","-1","709","-0.973289534251551","0","0","2","1",">19 missed"
"2","189","1","../static/images/invador3.png","1","80","2","40","left","70","1","717","-0.920645288004189","1","0","2","1",">19 missed"
"2","190","1","../static/images/invador2.png","4","20","8","2.5","left","74","-1","1206","2.29723426386582","0","0","2","1",">19 missed"
"2","191","1","../static/images/invador1.png","2","20","2","10","right","74","1","856","-0.00595150945627329","0","0","2","1",">19 missed"
"2","192","1","../static/images/invador2.png","4","20","8","2.5","left","74","-1","809","-0.315236456159525","0","0","2","1",">19 missed"
"2","193","1","../static/images/invador2.png","4","20","8","2.5","right","70","-1","778","-0.519232910368053","0","0","2","1",">19 missed"
"2","194","1","../static/images/invador4.png","3","80","8","10","left","74","-1","614","-1.59843995843898","1","0","2","1",">19 missed"
"2","195","1","../static/images/invador2.png","4","20","8","2.5","right","70","-1","821","-0.236270086788482","0","0","2","1",">19 missed"
"2","196","1","../static/images/invador2.png","4","20","8","2.5","right","70","-1","671","-1.22334970392652","0","0","2","1",">19 missed"
"2","197","1","../static/images/invador1.png","2","20","2","10","right","74","1","787","-0.460008133339771","1","0","2","1",">19 missed"
"2","198","1","../static/images/invador3.png","1","80","2","40","left","70","1","868","0.0730148599147698","0","0","2","1",">19 missed"
"2","199","1","../static/images/invador2.png","4","20","8","2.5","left","70","NaN","NaN","NaN","2","1","2","1",">19 missed"
"2","200","1","../static/images/invador2.png","4","20","8","2.5","left","74","-1","988","0.862678553625201","0","0","2","1",">19 missed"
"2","201","1","../static/images/invador4.png","3","80","8","10","right","70","-1","685","-1.13122227299364","0","0","2","1",">19 missed"
"2","202","1","../static/images/invador2.png","4","20","8","2.5","right","70","-1","760","-0.637682464424618","0","0","2","1",">19 missed"
"2","203","1","../static/images/invador2.png","4","20","8","2.5","left","74","-1","893","0.237528129437776","0","0","2","1",">19 missed"
"2","204","1","../static/images/invador3.png","1","80","2","40","left","70","1","796","-0.400783356311489","0","0","2","1",">19 missed"
"2","205","1","../static/images/invador4.png","3","80","8","10","right","70","-1","890","0.217786537095015","0","0","2","1",">19 missed"
"2","206","1","../static/images/invador2.png","4","20","8","2.5","right","70","-1","825","-0.209947963664801","0","0","2","1",">19 missed"
"2","207","1","../static/images/invador1.png","2","20","2","10","left","70","1","710","-0.966709003470631","0","0","2","1",">19 missed"
"2","208","1","../static/images/invador2.png","4","20","8","2.5","right","70","-1","829","-0.18362584054112","0","0","2","1",">19 missed"
"2","209","1","../static/images/invador2.png","4","20","8","2.5","left","74","-1","794","-0.413944417873329","0","0","2","1",">19 missed"
"2","210","1","../static/images/invador2.png","4","20","8","2.5","left","74","-1","712","-0.95354794190879","0","0","2","1",">19 missed"
"2","211","1","../static/images/invador4.png","3","80","8","10","right","70","-1","695","-1.06541696518443","2","0","2","1",">19 missed"
"2","212","1","../static/images/invador2.png","4","20","8","2.5","right","70","-1","708","-0.979870065032471","0","0","2","1",">19 missed"
"2","213","1","../static/images/invador1.png","2","20","2","10","right","74","1","710","-0.966709003470631","0","0","2","1",">19 missed"
"2","214","1","../static/images/invador2.png","4","20","8","2.5","right","70","-1","999","0.935064392215323","0","0","2","1",">19 missed"
"2","215","1","../static/images/invador3.png","1","80","2","40","left","70","1","957","0.658682099416673","2","0","2","1",">19 missed"
"2","216","1","../static/images/invador2.png","4","20","8","2.5","right","70","-1","846","-0.0717568172654759","0","0","2","1",">19 missed"
"2","217","1","../static/images/invador2.png","4","20","8","2.5","left","-1","NaN","NaN","NaN","2","1","2","1",">19 missed"
"2","218","1","../static/images/invador2.png","4","20","8","2.5","left","70","NaN","NaN","NaN","0","1","2","1",">19 missed"
"2","219","1","../static/images/invador1.png","2","20","2","10","right","74","1","837","-0.130981594293758","0","0","2","1",">19 missed"
"2","220","1","../static/images/invador4.png","3","80","8","10","right","70","-1","720","-0.900903695661428","0","0","2","1",">19 missed"
"2","221","1","../static/images/invador2.png","4","20","8","2.5","right","70","-1","791","-0.43368601021609","0","0","2","1",">19 missed"
"2","222","1","../static/images/invador2.png","4","20","8","2.5","left","74","-1","870","0.0861759214766103","2","0","2","1",">19 missed"
"2","223","1","../static/images/invador3.png","1","80","2","40","left","70","1","716","-0.927225818785109","0","0","2","1",">19 missed"
"2","224","1","../static/images/invador1.png","2","20","2","10","right","74","1","984","0.83635643050152","0","0","2","1",">19 missed"
"2","225","1","../static/images/invador3.png","1","80","2","40","right","74","1","1035","1.17196350032845","1","0","2","1",">19 missed"
"2","226","1","../static/images/invador2.png","4","20","8","2.5","left","74","-1","1013","1.02719182314821","0","0","2","1",">19 missed"
"2","227","1","../static/images/invador2.png","4","20","8","2.5","right","70","-1","716","-0.927225818785109","1","0","2","1",">19 missed"
"2","228","1","../static/images/invador2.png","4","20","8","2.5","left","74","-1","863","0.0401122060101685","0","0","2","1",">19 missed"
"2","229","1","../static/images/invador4.png","3","80","8","10","right","70","-1","662","-1.2825744809548","0","0","2","1",">19 missed"
"2","230","1","../static/images/invador2.png","4","20","8","2.5","left","74","-1","683","-1.14438333455548","2","0","2","1",">19 missed"
"2","231","1","../static/images/invador2.png","4","20","8","2.5","left","74","-1","663","-1.27599395017388","0","0","2","1",">19 missed"
"2","232","1","../static/images/invador4.png","3","80","8","10","left","74","-1","685","-1.13122227299364","0","0","2","1",">19 missed"
"2","233","1","../static/images/invador2.png","4","20","8","2.5","right","70","-1","754","-0.677165649110139","0","0","2","1",">19 missed"
"2","234","1","../static/images/invador2.png","4","20","8","2.5","right","70","-1","698","-1.04567537284167","0","0","2","1",">19 missed"
"2","235","1","../static/images/invador3.png","1","80","2","40","left","70","1","797","-0.394202825530568","0","0","2","1",">19 missed"
"2","236","1","../static/images/invador1.png","2","20","2","10","left","70","1","770","-0.571877156615415","0","0","2","1",">19 missed"
"2","237","1","../static/images/invador2.png","4","20","8","2.5","left","74","-1","858","0.00720955210556722","0","0","2","1",">19 missed"
"2","238","1","../static/images/invador2.png","4","20","8","2.5","left","74","-1","812","-0.295494863816765","0","0","2","1",">19 missed"
"2","239","1","../static/images/invador1.png","2","20","2","10","left","70","1","806","-0.334978048502286","0","0","2","1",">19 missed"
"2","240","0","../static/images/invador3.png","1","80","2","40","left","70","1","923","0.434944052865384","0","0","2","1",">19 missed"
"2","241","0","../static/images/invador3.png","1","80","2","40","right","74","1","929","0.474427237550905","0","0","2","1",">19 missed"
"2","242","0","../static/images/invador1.png","2","20","2","10","right","74","1","965","0.711326345664035","0","0","2","1",">19 missed"
"2","243","0","../static/images/invador4.png","3","80","8","10","left","74","-1","976","0.783712184254157","0","0","2","1",">19 missed"
"2","244","0","../static/images/invador3.png","1","80","2","40","right","74","1","757","-0.657424056767379","0","0","2","1",">19 missed"
"2","245","0","../static/images/invador1.png","2","20","2","10","right","74","1","917","0.395460868179862","0","0","2","1",">19 missed"
"2","246","0","../static/images/invador3.png","1","80","2","40","right","74","1","674","-1.20360811158376","0","0","2","1",">19 missed"
"2","247","0","../static/images/invador3.png","1","80","2","40","right","74","1","699","-1.03909484206075","0","0","2","1",">19 missed"
"2","248","0","../static/images/invador2.png","4","20","8","2.5","right","70","-1","809","-0.315236456159525","2","0","2","1",">19 missed"
"2","249","0","../static/images/invador4.png","3","80","8","10","left","74","-1","800","-0.374461233187808","0","0","2","1",">19 missed"
"2","250","0","../static/images/invador3.png","1","80","2","40","left","70","1","804","-0.348139110064127","0","0","2","1",">19 missed"
"2","251","0","../static/images/invador3.png","1","80","2","40","right","74","1","658","-1.30889660407848","2","0","2","1",">19 missed"
"2","252","0","../static/images/invador3.png","1","80","2","40","right","74","1","812","-0.295494863816765","0","0","2","1",">19 missed"
"2","253","0","../static/images/invador1.png","2","20","2","10","left","70","1","871","0.0927564522575306","0","0","2","1",">19 missed"
"2","254","0","../static/images/invador4.png","3","80","8","10","right","70","-1","912","0.362558214275261","0","0","2","1",">19 missed"
"2","255","0","../static/images/invador3.png","1","80","2","40","right","74","1","629","-1.49973199672517","0","0","2","1",">19 missed"
"2","256","0","../static/images/invador2.png","4","20","8","2.5","right","74","NaN","NaN","NaN","0","1","2","1",">19 missed"
"2","257","0","../static/images/invador3.png","1","80","2","40","right","74","1","812","-0.295494863816765","0","0","2","1",">19 missed"
"2","258","0","../static/images/invador3.png","1","80","2","40","left","70","1","735","-0.802195733947624","0","0","2","1",">19 missed"
"2","259","0","../static/images/invador3.png","1","80","2","40","right","74","1","789","-0.44684707177793","0","0","2","1",">19 missed"
"2","260","0","../static/images/invador3.png","1","80","2","40","left","70","1","1087","1.51415110093631","0","0","2","1",">19 missed"
"2","261","0","../static/images/invador3.png","1","80","2","40","right","74","1","713","-0.94696741112787","0","0","2","1",">19 missed"
"2","262","0","../static/images/invador2.png","4","20","8","2.5","left","74","-1","1082","1.4812484470317","0","0","2","1",">19 missed"
"2","263","0","../static/images/invador1.png","2","20","2","10","left","70","1","832","-0.163884248198359","0","0","2","1",">19 missed"
"2","264","0","../static/images/invador4.png","3","80","8","10","right","70","-1","920","0.415202460522623","0","0","2","1",">19 missed"
"2","265","0","../static/images/invador3.png","1","80","2","40","left","70","1","794","-0.413944417873329","0","0","2","1",">19 missed"
"2","266","0","../static/images/invador3.png","1","80","2","40","left","70","1","915","0.382299806618022","0","0","2","1",">19 missed"
"2","267","0","../static/images/invador2.png","4","20","8","2.5","left","74","-1","981","0.816614838158759","0","0","2","1",">19 missed"
"2","268","0","../static/images/invador1.png","2","20","2","10","right","74","1","880","0.151981229285813","2","0","2","1",">19 missed"
"2","269","0","../static/images/invador3.png","1","80","2","40","left","70","1","773","-0.552135564272655","2","0","2","1",">19 missed"
"2","270","0","../static/images/invador3.png","1","80","2","40","right","74","NaN","NaN","NaN","0","1","2","1",">19 missed"
"2","271","0","../static/images/invador3.png","1","80","2","40","right","74","1","851","-0.0388541633608746","0","0","2","1",">19 missed"
"2","272","0","../static/images/invador4.png","3","80","8","10","right","70","-1","1028","1.12589978486201","0","0","2","1",">19 missed"
"2","273","0","../static/images/invador4.png","3","80","8","10","left","74","-1","840","-0.111240001950997","0","0","2","1",">19 missed"
"2","274","0","../static/images/invador1.png","2","20","2","10","right","70","-1","771","-0.565296625834495","0","0","2","1",">19 missed"
"2","275","0","../static/images/invador3.png","1","80","2","40","left","70","1","829","-0.18362584054112","0","0","2","1",">19 missed"
"2","276","0","../static/images/invador3.png","1","80","2","40","right","74","1","846","-0.0717568172654759","0","0","2","1",">19 missed"
"2","277","0","../static/images/invador3.png","1","80","2","40","right","74","1","752","-0.69032671067198","2","0","2","1",">19 missed"
"2","278","0","../static/images/invador2.png","4","20","8","2.5","left","70","NaN","NaN","NaN","0","1","2","1",">19 missed"
"2","279","0","../static/images/invador3.png","1","80","2","40","right","74","1","938","0.533652014579188","0","0","2","1",">19 missed"
"2","280","0","../static/images/invador3.png","1","80","2","40","right","74","1","747","-0.723229364576581","0","0","2","1",">19 missed"
"2","281","0","../static/images/invador3.png","1","80","2","40","left","70","1","751","-0.6969072414529","0","0","2","1",">19 missed"
"2","282","0","../static/images/invador3.png","1","80","2","40","left","70","1","823","-0.223109025226642","1","0","2","1",">19 missed"
"2","283","0","../static/images/invador4.png","3","80","8","10","right","70","-1","837","-0.130981594293758","0","0","2","1",">19 missed"
"2","284","0","../static/images/invador2.png","4","20","8","2.5","left","74","-1","1099","1.59311747030735","0","0","2","1",">19 missed"
"2","285","0","../static/images/invador3.png","1","80","2","40","left","70","1","754","-0.677165649110139","0","0","2","1",">19 missed"
