subj,trial_index_actual,block,stimulus,stim_rank,reward_percent,delay_s,profitability,stim_left_right,key_press,approach_avoid,rt,rt_z,force_trial,missed,order_condition,exclude,exclude_reason
1,0,1,../static/images/invador2.png,4,20,8,2.5,left,74,-1,1172,1.475004329,0,0,2,0,do not exclude
1,1,1,../static/images/invador3.png,1,80,2,40,right,74,1,1046,0.846310915,1,0,2,0,do not exclude
1,2,1,../static/images/invador1.png,3,80,8,10,left,70,1,743,-0.665547054,0,0,2,0,do not exclude
1,3,1,../static/images/invador2.png,4,20,8,2.5,right,74,NaN,NaN,NaN,1,1,2,0,do not exclude
1,4,1,../static/images/invador2.png,4,20,8,2.5,left,70,1,858,-0.091739574,0,0,2,0,do not exclude
1,5,1,../static/images/invador4.png,2,20,2,10,left,70,1,818,-0.291324785,0,0,2,0,do not exclude
1,6,1,../static/images/invador2.png,4,20,8,2.5,left,70,1,1076,0.995999823,0,0,2,0,do not exclude
1,7,1,../static/images/invador2.png,4,20,8,2.5,right,74,1,987,0.55192273,0,0,2,0,do not exclude
1,8,1,../static/images/invador1.png,3,80,8,10,left,74,-1,766,-0.550785558,2,0,2,0,do not exclude
1,9,1,../static/images/invador4.png,2,20,2,10,right,74,1,1059,0.911176109,0,0,2,0,do not exclude
1,10,1,../static/images/invador2.png,4,20,8,2.5,left,74,-1,569,-1.53374272,2,0,2,0,do not exclude
1,11,1,../static/images/invador3.png,1,80,2,40,right,74,1,940,0.317410107,0,0,2,0,do not exclude
1,12,1,../static/images/invador2.png,4,20,8,2.5,left,74,-1,791,-0.426044802,2,0,2,0,do not exclude
1,13,1,../static/images/invador2.png,4,20,8,2.5,left,70,1,907,0.152752309,0,0,2,0,do not exclude
1,14,1,../static/images/invador2.png,4,20,8,2.5,right,70,-1,962,0.427181973,2,0,2,0,do not exclude
1,15,1,../static/images/invador2.png,4,20,8,2.5,left,70,1,919,0.212627872,0,0,2,0,do not exclude
1,16,1,../static/images/invador2.png,4,20,8,2.5,left,74,-1,949,0.36231678,0,0,2,0,do not exclude
1,17,1,../static/images/invador4.png,2,20,2,10,left,70,1,873,-0.01689512,0,0,2,0,do not exclude
1,18,1,../static/images/invador1.png,3,80,8,10,left,70,1,1016,0.696622007,0,0,2,0,do not exclude
1,19,1,../static/images/invador3.png,1,80,2,40,left,70,1,907,0.152752309,0,0,2,0,do not exclude
1,20,1,../static/images/invador2.png,4,20,8,2.5,left,74,-1,763,-0.565754449,0,0,2,0,do not exclude
1,21,1,../static/images/invador2.png,4,20,8,2.5,left,74,-1,1056,0.896207218,0,0,2,0,do not exclude
1,22,1,../static/images/invador4.png,2,20,2,10,right,74,1,772,-0.520847777,0,0,2,0,do not exclude
1,23,1,../static/images/invador2.png,4,20,8,2.5,left,74,-1,868,-0.041843271,0,0,2,0,do not exclude
1,24,1,../static/images/invador1.png,3,80,8,10,right,74,1,1015,0.691632377,0,0,2,0,do not exclude
1,25,1,../static/images/invador3.png,1,80,2,40,left,74,-1,961,0.422192343,0,0,2,0,do not exclude
1,26,1,../static/images/invador2.png,4,20,8,2.5,right,70,-1,1075,0.991010193,0,0,2,0,do not exclude
1,27,1,../static/images/invador2.png,4,20,8,2.5,left,74,-1,1015,0.691632377,0,0,2,0,do not exclude
1,28,1,../static/images/invador4.png,2,20,2,10,left,70,1,954,0.387264931,0,0,2,0,do not exclude
1,29,1,../static/images/invador2.png,4,20,8,2.5,left,70,1,907,0.152752309,0,0,2,0,do not exclude
1,30,1,../static/images/invador1.png,3,80,8,10,left,74,-1,612,-1.319188619,2,0,2,0,do not exclude
1,31,1,../static/images/invador3.png,1,80,2,40,left,70,1,871,-0.026874381,1,0,2,0,do not exclude
1,32,1,../static/images/invador2.png,4,20,8,2.5,right,70,-1,948,0.35732715,0,0,2,0,do not exclude
1,33,1,../static/images/invador2.png,4,20,8,2.5,left,74,-1,967,0.452130125,0,0,2,0,do not exclude
1,34,1,../static/images/invador2.png,4,20,8,2.5,right,70,-1,1068,0.956082781,0,0,2,0,do not exclude
1,35,1,../static/images/invador3.png,1,80,2,40,right,74,1,783,-0.465961844,0,0,2,0,do not exclude
1,36,1,../static/images/invador2.png,4,20,8,2.5,right,70,-1,1000,0.616787923,0,0,2,0,do not exclude
1,37,1,../static/images/invador4.png,2,20,2,10,left,70,1,893,0.082897485,0,0,2,0,do not exclude
1,38,1,../static/images/invador1.png,3,80,8,10,right,74,1,777,-0.495899625,0,0,2,0,do not exclude
1,39,1,../static/images/invador2.png,4,20,8,2.5,left,74,-1,1006,0.646725705,0,0,2,0,do not exclude
1,40,1,../static/images/invador2.png,4,20,8,2.5,right,70,-1,1025,0.74152868,0,0,2,0,do not exclude
1,41,1,../static/images/invador2.png,4,20,8,2.5,right,70,-1,931,0.272503435,0,0,2,0,do not exclude
1,42,1,../static/images/invador2.png,4,20,8,2.5,right,70,-1,982,0.526974579,0,0,2,0,do not exclude
1,43,1,../static/images/invador4.png,2,20,2,10,right,74,1,888,0.057949334,0,0,2,0,do not exclude
1,44,1,../static/images/invador2.png,4,20,8,2.5,right,70,-1,885,0.042980443,0,0,2,0,do not exclude
1,45,1,../static/images/invador2.png,4,20,8,2.5,right,70,-1,1032,0.776456092,0,0,2,0,do not exclude
1,46,1,../static/images/invador3.png,1,80,2,40,right,74,NaN,NaN,NaN,0,1,2,0,do not exclude
1,47,1,../static/images/invador1.png,3,80,8,10,left,70,1,1046,0.846310915,1,0,2,0,do not exclude
1,48,1,../static/images/invador2.png,4,20,8,2.5,right,70,-1,962,0.427181973,0,0,2,0,do not exclude
1,49,1,../static/images/invador2.png,4,20,8,2.5,left,70,1,722,-0.77032929,0,0,2,0,do not exclude
1,50,1,../static/images/invador2.png,4,20,8,2.5,right,70,-1,884,0.037990813,0,0,2,0,do not exclude
1,51,1,../static/images/invador1.png,3,80,8,10,right,70,-1,486,-1.947882032,2,0,2,0,do not exclude
1,52,1,../static/images/invador3.png,1,80,2,40,left,70,1,933,0.282482696,0,0,2,0,do not exclude
1,53,1,../static/images/invador2.png,4,20,8,2.5,right,70,-1,886,0.047970073,0,0,2,0,do not exclude
1,54,1,../static/images/invador2.png,4,20,8,2.5,left,74,-1,599,-1.384053812,2,0,2,0,do not exclude
1,55,1,../static/images/invador4.png,2,20,2,10,right,74,1,885,0.042980443,0,0,2,0,do not exclude
1,56,1,../static/images/invador1.png,3,80,8,10,right,70,-1,681,-0.974904131,2,0,2,0,do not exclude
1,57,1,../static/images/invador3.png,1,80,2,40,right,74,1,969,0.462109385,0,0,2,0,do not exclude
1,58,1,../static/images/invador2.png,4,20,8,2.5,right,70,-1,975,0.492047167,0,0,2,0,do not exclude
1,59,1,../static/images/invador4.png,2,20,2,10,left,70,1,1033,0.781445722,0,0,2,0,do not exclude
1,60,1,../static/images/invador2.png,4,20,8,2.5,right,70,-1,929,0.262524175,2,0,2,0,do not exclude
1,61,1,../static/images/invador2.png,4,20,8,2.5,left,74,-1,1219,1.709516951,0,0,2,0,do not exclude
1,62,1,../static/images/invador2.png,4,20,8,2.5,right,70,-1,1046,0.846310915,0,0,2,0,do not exclude
1,63,1,../static/images/invador2.png,4,20,8,2.5,right,70,-1,963,0.432171604,0,0,2,0,do not exclude
1,64,1,../static/images/invador2.png,4,20,8,2.5,right,70,-1,627,-1.244344165,2,0,2,0,do not exclude
1,65,1,../static/images/invador2.png,4,20,8,2.5,right,70,-1,852,-0.121677356,0,0,2,0,do not exclude
1,66,1,../static/images/invador4.png,2,20,2,10,right,70,-1,933,0.282482696,0,0,2,0,do not exclude
1,67,1,../static/images/invador3.png,1,80,2,40,right,70,-1,567,-1.543721981,2,0,2,0,do not exclude
1,68,1,../static/images/invador1.png,3,80,8,10,right,70,-1,836,-0.20151144,0,0,2,0,do not exclude
1,69,1,../static/images/invador2.png,4,20,8,2.5,right,70,-1,1014,0.686642747,0,0,2,0,do not exclude
1,70,1,../static/images/invador2.png,4,20,8,2.5,right,70,-1,725,-0.755360399,2,0,2,0,do not exclude
1,71,1,../static/images/invador1.png,3,80,8,10,right,74,1,805,-0.356189978,0,0,2,0,do not exclude
1,72,1,../static/images/invador2.png,4,20,8,2.5,right,70,-1,1036,0.796414613,0,0,2,0,do not exclude
1,73,1,../static/images/invador2.png,4,20,8,2.5,left,74,-1,1125,1.240491706,0,0,2,0,do not exclude
1,74,1,../static/images/invador4.png,2,20,2,10,right,70,-1,589,-1.433950115,2,0,2,0,do not exclude
1,75,1,../static/images/invador3.png,1,80,2,40,left,70,NaN,NaN,NaN,0,1,2,0,do not exclude
1,76,1,../static/images/invador2.png,4,20,8,2.5,right,74,1,1543,3.326157156,0,0,2,0,do not exclude
1,77,1,../static/images/invador2.png,4,20,8,2.5,left,74,-1,924,0.237576023,2,0,2,0,do not exclude
1,78,1,../static/images/invador2.png,4,20,8,2.5,right,70,-1,1068,0.956082781,0,0,2,0,do not exclude
1,79,1,../static/images/invador4.png,2,20,2,10,left,70,1,1022,0.726559789,0,0,2,0,do not exclude
1,80,1,../static/images/invador1.png,3,80,8,10,right,74,1,1161,1.420118396,0,0,2,0,do not exclude
1,81,1,../static/images/invador3.png,1,80,2,40,left,70,1,883,0.033001182,0,0,2,0,do not exclude
1,82,1,../static/images/invador2.png,4,20,8,2.5,left,74,-1,924,0.237576023,0,0,2,0,do not exclude
1,83,1,../static/images/invador2.png,4,20,8,2.5,right,70,-1,1178,1.50494211,0,0,2,0,do not exclude
1,84,1,../static/images/invador2.png,4,20,8,2.5,left,70,1,1066,0.946103521,0,0,2,0,do not exclude
1,85,1,../static/images/invador2.png,4,20,8,2.5,right,74,1,533,-1.71336941,1,0,2,0,do not exclude
1,86,1,../static/images/invador2.png,4,20,8,2.5,right,74,1,544,-1.658483477,1,0,2,0,do not exclude
1,87,1,../static/images/invador4.png,2,20,2,10,left,74,-1,1121,1.220533185,0,0,2,0,do not exclude
1,88,1,../static/images/invador2.png,4,20,8,2.5,left,70,1,1104,1.135709471,0,0,2,0,do not exclude
1,89,1,../static/images/invador1.png,3,80,8,10,right,74,1,896,0.097866376,0,0,2,0,do not exclude
1,90,1,../static/images/invador3.png,1,80,2,40,left,70,1,832,-0.221469961,0,0,2,0,do not exclude
1,91,1,../static/images/invador2.png,4,20,8,2.5,left,70,1,672,-1.019810803,1,0,2,0,do not exclude
1,92,1,../static/images/invador4.png,2,20,2,10,left,70,1,931,0.272503435,0,0,2,0,do not exclude
1,93,1,../static/images/invador3.png,1,80,2,40,left,74,-1,718,-0.790287811,2,0,2,0,do not exclude
1,94,1,../static/images/invador2.png,4,20,8,2.5,left,74,-1,685,-0.95494561,2,0,2,0,do not exclude
1,95,1,../static/images/invador2.png,4,20,8,2.5,left,74,-1,1211,1.669599909,0,0,2,0,do not exclude
1,96,1,../static/images/invador1.png,3,80,8,10,right,74,1,905,0.142773048,0,0,2,0,do not exclude
1,97,1,../static/images/invador2.png,4,20,8,2.5,left,74,-1,1021,0.721570159,0,0,2,0,do not exclude
1,98,1,../static/images/invador2.png,4,20,8,2.5,right,70,-1,971,0.472088646,0,0,2,0,do not exclude
1,99,1,../static/images/invador2.png,4,20,8,2.5,left,74,-1,995,0.591839772,0,0,2,0,do not exclude
1,100,1,../static/images/invador4.png,2,20,2,10,right,74,1,1089,1.060865017,0,0,2,0,do not exclude
1,101,1,../static/images/invador3.png,1,80,2,40,left,70,1,804,-0.361179608,0,0,2,0,do not exclude
1,102,1,../static/images/invador2.png,4,20,8,2.5,right,70,-1,994,0.586850142,0,0,2,0,do not exclude
1,103,1,../static/images/invador1.png,3,80,8,10,left,70,1,1199,1.609724346,0,0,2,0,do not exclude
1,104,1,../static/images/invador2.png,4,20,8,2.5,right,74,1,563,-1.563680502,1,0,2,0,do not exclude
1,105,1,../static/images/invador2.png,4,20,8,2.5,left,74,-1,939,0.312420477,0,0,2,0,do not exclude
1,106,1,../static/images/invador2.png,4,20,8,2.5,right,70,-1,952,0.377285671,0,0,2,0,do not exclude
1,107,1,../static/images/invador1.png,3,80,8,10,left,70,1,933,0.282482696,1,0,2,0,do not exclude
1,108,1,../static/images/invador2.png,4,20,8,2.5,left,74,-1,963,0.432171604,0,0,2,0,do not exclude
1,109,1,../static/images/invador4.png,2,20,2,10,left,74,-1,878,0.008053031,0,0,2,0,do not exclude
1,110,1,../static/images/invador3.png,1,80,2,40,left,70,1,809,-0.336231457,0,0,2,0,do not exclude
1,111,1,../static/images/invador2.png,4,20,8,2.5,right,70,-1,814,-0.311283306,0,0,2,0,do not exclude
1,112,1,../static/images/invador2.png,4,20,8,2.5,left,74,-1,890,0.067928594,0,0,2,0,do not exclude
1,113,1,../static/images/invador2.png,4,20,8,2.5,right,70,-1,935,0.292461956,0,0,2,0,do not exclude
1,114,1,../static/images/invador2.png,4,20,8,2.5,left,74,-1,900,0.117824897,0,0,2,0,do not exclude
1,115,1,../static/images/invador3.png,1,80,2,40,right,74,1,783,-0.465961844,0,0,2,0,do not exclude
1,116,1,../static/images/invador4.png,2,20,2,10,left,70,1,1158,1.405149505,0,0,2,0,do not exclude
1,117,1,../static/images/invador2.png,4,20,8,2.5,left,74,-1,927,0.252544914,0,0,2,0,do not exclude
1,118,1,../static/images/invador1.png,3,80,8,10,right,70,-1,1067,0.951093151,0,0,2,0,do not exclude
1,119,1,../static/images/invador2.png,4,20,8,2.5,left,74,-1,694,-0.910038937,1,0,2,0,do not exclude
1,120,1,../static/images/invador4.png,2,20,2,10,right,70,-1,6,-4.342904558,0,0,2,0,do not exclude
1,121,1,../static/images/invador2.png,4,20,8,2.5,left,70,1,1019,0.711590898,0,0,2,0,do not exclude
1,122,1,../static/images/invador1.png,3,80,8,10,left,70,1,1071,0.971051672,0,0,2,0,do not exclude
1,123,1,../static/images/invador3.png,1,80,2,40,left,70,1,1138,1.3053569,0,0,2,0,do not exclude
1,124,1,../static/images/invador2.png,4,20,8,2.5,right,70,-1,538,-1.688421258,2,0,2,0,do not exclude
1,125,1,../static/images/invador2.png,4,20,8,2.5,right,70,-1,1110,1.165647252,0,0,2,0,do not exclude
1,126,1,../static/images/invador2.png,4,20,8,2.5,right,70,-1,1074,0.986020563,0,0,2,0,do not exclude
1,127,1,../static/images/invador2.png,4,20,8,2.5,left,74,-1,827,-0.246418112,0,0,2,0,do not exclude
1,128,1,../static/images/invador1.png,3,80,8,10,left,74,-1,855,-0.106708465,0,0,2,0,do not exclude
1,129,1,../static/images/invador2.png,4,20,8,2.5,right,70,-1,770,-0.530827037,0,0,2,0,do not exclude
1,130,1,../static/images/invador4.png,2,20,2,10,left,74,-1,893,0.082897485,0,0,2,0,do not exclude
1,131,1,../static/images/invador2.png,4,20,8,2.5,right,70,-1,899,0.112835267,0,0,2,0,do not exclude
1,132,1,../static/images/invador3.png,1,80,2,40,right,70,-1,523,-1.763265712,2,0,2,0,do not exclude
1,133,1,../static/images/invador3.png,1,80,2,40,right,74,1,736,-0.700474466,0,0,2,0,do not exclude
1,134,1,../static/images/invador2.png,4,20,8,2.5,right,74,1,627,-1.244344165,1,0,2,0,do not exclude
1,135,1,../static/images/invador1.png,3,80,8,10,right,74,1,1111,1.170636882,0,0,2,0,do not exclude
1,136,1,../static/images/invador4.png,2,20,2,10,left,74,-1,937,0.302441217,0,0,2,0,do not exclude
1,137,1,../static/images/invador2.png,4,20,8,2.5,left,74,-1,1076,0.995999823,0,0,2,0,do not exclude
1,138,1,../static/images/invador2.png,4,20,8,2.5,right,70,-1,1008,0.656704965,0,0,2,0,do not exclude
1,139,1,../static/images/invador2.png,4,20,8,2.5,left,74,-1,856,-0.101718835,0,0,2,0,do not exclude
1,140,1,../static/images/invador2.png,4,20,8,2.5,right,70,-1,833,-0.216480331,0,0,2,0,do not exclude
1,141,1,../static/images/invador2.png,4,20,8,2.5,left,74,-1,827,-0.246418112,0,0,2,0,do not exclude
1,142,1,../static/images/invador4.png,2,20,2,10,right,74,1,1009,0.661694596,0,0,2,0,do not exclude
1,143,1,../static/images/invador3.png,1,80,2,40,left,70,1,805,-0.356189978,0,0,2,0,do not exclude
1,144,1,../static/images/invador2.png,4,20,8,2.5,right,70,-1,748,-0.640598903,0,0,2,0,do not exclude
1,145,1,../static/images/invador1.png,3,80,8,10,right,70,-1,616,-1.299230098,2,0,2,0,do not exclude
1,146,1,../static/images/invador2.png,4,20,8,2.5,left,74,-1,927,0.252544914,0,0,2,0,do not exclude
1,147,1,../static/images/invador2.png,4,20,8,2.5,left,74,-1,1303,2.128645893,0,0,2,0,do not exclude
1,148,1,../static/images/invador1.png,3,80,8,10,right,70,-1,621,-1.274281946,2,0,2,0,do not exclude
1,149,1,../static/images/invador3.png,1,80,2,40,left,70,1,931,0.272503435,0,0,2,0,do not exclude
1,150,1,../static/images/invador4.png,2,20,2,10,left,70,1,607,-1.34413677,1,0,2,0,do not exclude
1,151,1,../static/images/invador2.png,4,20,8,2.5,left,74,-1,872,-0.02188475,0,0,2,0,do not exclude
1,152,1,../static/images/invador2.png,4,20,8,2.5,right,70,-1,976,0.497036797,0,0,2,0,do not exclude
1,153,1,../static/images/invador2.png,4,20,8,2.5,left,74,-1,970,0.467099015,0,0,2,0,do not exclude
1,154,1,../static/images/invador2.png,4,20,8,2.5,right,70,-1,819,-0.286335154,0,0,2,0,do not exclude
1,155,1,../static/images/invador3.png,1,80,2,40,left,70,1,876,-0.001926229,0,0,2,0,do not exclude
1,156,1,../static/images/invador2.png,4,20,8,2.5,left,74,-1,583,-1.463887896,2,0,2,0,do not exclude
1,157,1,../static/images/invador4.png,2,20,2,10,left,74,-1,989,0.56190199,0,0,2,0,do not exclude
1,158,1,../static/images/invador2.png,4,20,8,2.5,right,70,-1,865,-0.056812162,0,0,2,0,do not exclude
1,159,1,../static/images/invador2.png,4,20,8,2.5,right,70,-1,841,-0.176563289,0,0,2,0,do not exclude
1,160,1,../static/images/invador1.png,3,80,8,10,left,70,1,815,-0.306293675,0,0,2,0,do not exclude
1,161,1,../static/images/invador2.png,4,20,8,2.5,right,70,-1,913,0.18269009,0,0,2,0,do not exclude
1,162,1,../static/images/invador1.png,3,80,8,10,right,70,-1,615,-1.304219728,2,0,2,0,do not exclude
1,163,1,../static/images/invador4.png,2,20,2,10,left,70,1,1038,0.806393873,0,0,2,0,do not exclude
1,164,1,../static/images/invador2.png,4,20,8,2.5,right,70,-1,735,-0.705464096,0,0,2,0,do not exclude
1,165,1,../static/images/invador2.png,4,20,8,2.5,right,70,-1,777,-0.495899625,0,0,2,0,do not exclude
1,166,1,../static/images/invador2.png,4,20,8,2.5,left,70,1,626,-1.249333795,1,0,2,0,do not exclude
1,167,1,../static/images/invador3.png,1,80,2,40,left,70,1,842,-0.171573658,0,0,2,0,do not exclude
1,168,1,../static/images/invador2.png,4,20,8,2.5,left,74,-1,1079,1.010968714,0,0,2,0,do not exclude
1,169,1,../static/images/invador2.png,4,20,8,2.5,left,74,-1,978,0.507016057,0,0,2,0,do not exclude
1,170,1,../static/images/invador2.png,4,20,8,2.5,left,74,-1,921,0.222607132,0,0,2,0,do not exclude
1,171,1,../static/images/invador4.png,2,20,2,10,right,70,-1,783,-0.465961844,0,0,2,0,do not exclude
1,172,1,../static/images/invador2.png,4,20,8,2.5,right,70,-1,969,0.462109385,0,0,2,0,do not exclude
1,173,1,../static/images/invador1.png,3,80,8,10,right,70,-1,818,-0.291324785,0,0,2,0,do not exclude
1,174,1,../static/images/invador3.png,1,80,2,40,left,70,1,965,0.442150864,0,0,2,0,do not exclude
1,175,1,../static/images/invador3.png,1,80,2,40,left,70,1,872,-0.02188475,1,0,2,0,do not exclude
1,176,1,../static/images/invador4.png,2,20,2,10,left,74,-1,918,0.207638242,0,0,2,0,do not exclude
1,177,1,../static/images/invador2.png,4,20,8,2.5,right,70,-1,971,0.472088646,0,0,2,0,do not exclude
1,178,1,../static/images/invador2.png,4,20,8,2.5,left,74,-1,947,0.352337519,0,0,2,0,do not exclude
1,179,1,../static/images/invador2.png,4,20,8,2.5,left,74,-1,871,-0.026874381,0,0,2,0,do not exclude
1,180,1,../static/images/invador2.png,4,20,8,2.5,left,74,-1,880,0.018032292,0,0,2,0,do not exclude
1,181,1,../static/images/invador1.png,3,80,8,10,left,70,1,934,0.287472326,0,0,2,0,do not exclude
1,182,1,../static/images/invador2.png,4,20,8,2.5,left,74,-1,897,0.102856006,0,0,2,0,do not exclude
1,183,1,../static/images/invador4.png,2,20,2,10,left,74,-1,823,-0.266376633,0,0,2,0,do not exclude
1,184,1,../static/images/invador1.png,3,80,8,10,right,74,1,1055,0.891217588,0,0,2,0,do not exclude
1,185,1,../static/images/invador2.png,4,20,8,2.5,left,74,-1,516,-1.798193124,2,0,2,0,do not exclude
1,186,1,../static/images/invador2.png,4,20,8,2.5,left,74,-1,988,0.55691236,0,0,2,0,do not exclude
1,187,1,../static/images/invador2.png,4,20,8,2.5,right,70,-1,1029,0.761487201,0,0,2,0,do not exclude
1,188,1,../static/images/invador3.png,1,80,2,40,left,70,1,824,-0.261387003,1,0,2,0,do not exclude
1,189,1,../static/images/invador1.png,3,80,8,10,left,74,-1,925,0.242565654,0,0,2,0,do not exclude
1,190,1,../static/images/invador2.png,4,20,8,2.5,left,70,1,535,-1.703390149,1,0,2,0,do not exclude
1,191,1,../static/images/invador4.png,2,20,2,10,right,70,-1,523,-1.763265712,2,0,2,0,do not exclude
1,192,1,../static/images/invador2.png,4,20,8,2.5,right,70,-1,868,-0.041843271,0,0,2,0,do not exclude
1,193,1,../static/images/invador3.png,1,80,2,40,right,70,-1,539,-1.683431628,2,0,2,0,do not exclude
1,194,1,../static/images/invador2.png,4,20,8,2.5,left,74,-1,867,-0.046832902,0,0,2,0,do not exclude
1,195,1,../static/images/invador2.png,4,20,8,2.5,left,74,-1,902,0.127804157,0,0,2,0,do not exclude
1,196,1,../static/images/invador1.png,3,80,8,10,left,70,1,1069,0.961072411,0,0,2,0,do not exclude
1,197,1,../static/images/invador4.png,2,20,2,10,right,70,-1,874,-0.01190549,0,0,2,0,do not exclude
1,198,1,../static/images/invador2.png,4,20,8,2.5,right,70,-1,657,-1.094655257,2,0,2,0,do not exclude
1,199,1,../static/images/invador2.png,4,20,8,2.5,left,70,1,1226,1.744444363,0,0,2,0,do not exclude
1,200,1,../static/images/invador3.png,1,80,2,40,right,74,1,808,-0.341221087,0,0,2,0,do not exclude
1,201,1,../static/images/invador2.png,4,20,8,2.5,right,70,-1,987,0.55192273,0,0,2,0,do not exclude
1,202,1,../static/images/invador2.png,4,20,8,2.5,right,74,1,660,-1.079686366,1,0,2,0,do not exclude
1,203,1,../static/images/invador2.png,4,20,8,2.5,right,70,-1,916,0.197658981,0,0,2,0,do not exclude
1,204,1,../static/images/invador1.png,3,80,8,10,right,74,1,1034,0.786435352,0,0,2,0,do not exclude
1,205,1,../static/images/invador3.png,1,80,2,40,left,70,1,571,-1.52376346,1,0,2,0,do not exclude
1,206,1,../static/images/invador4.png,2,20,2,10,left,70,1,1038,0.806393873,0,0,2,0,do not exclude
1,207,1,../static/images/invador2.png,4,20,8,2.5,left,74,-1,1034,0.786435352,0,0,2,0,do not exclude
1,208,1,../static/images/invador2.png,4,20,8,2.5,left,74,-1,1040,0.816373134,1,0,2,0,do not exclude
1,209,1,../static/images/invador2.png,4,20,8,2.5,left,70,1,0,-4.37284234,0,0,2,0,do not exclude
1,210,1,../static/images/invador2.png,4,20,8,2.5,left,74,-1,1020,0.716580529,0,0,2,0,do not exclude
1,211,0,../static/images/invador4.png,2,20,2,10,right,70,-1,739,-0.685505575,2,0,2,0,do not exclude
1,212,0,../static/images/invador3.png,1,80,2,40,left,70,1,552,-1.618566435,1,0,2,0,do not exclude
1,213,0,../static/images/invador2.png,4,20,8,2.5,left,74,-1,987,0.55192273,0,0,2,0,do not exclude
1,214,0,../static/images/invador3.png,1,80,2,40,right,74,1,1055,0.891217588,0,0,2,0,do not exclude
1,215,0,../static/images/invador1.png,3,80,8,10,right,70,-1,867,-0.046832902,0,0,2,0,do not exclude
1,216,0,../static/images/invador3.png,1,80,2,40,right,74,1,1061,0.921155369,0,0,2,0,do not exclude
1,217,0,../static/images/invador3.png,1,80,2,40,left,70,1,599,-1.384053812,1,0,2,0,do not exclude
1,218,0,../static/images/invador4.png,2,20,2,10,left,74,-1,1198,1.604734715,0,0,2,0,do not exclude
1,219,0,../static/images/invador3.png,1,80,2,40,right,74,1,753,-0.615650752,0,0,2,0,do not exclude
1,220,0,../static/images/invador3.png,1,80,2,40,left,70,1,1062,0.926145,0,0,2,0,do not exclude
1,221,0,../static/images/invador3.png,1,80,2,40,left,70,1,717,-0.795277441,1,0,2,0,do not exclude
1,222,0,../static/images/invador2.png,4,20,8,2.5,right,70,-1,1092,1.075833907,0,0,2,0,do not exclude
1,223,0,../static/images/invador1.png,3,80,8,10,left,70,1,1159,1.410139135,0,0,2,0,do not exclude
1,224,0,../static/images/invador3.png,1,80,2,40,left,70,1,1082,1.025937605,0,0,2,0,do not exclude
1,225,0,../static/images/invador1.png,3,80,8,10,left,70,1,548,-1.638524956,1,0,2,0,do not exclude
1,226,0,../static/images/invador3.png,1,80,2,40,right,74,1,988,0.55691236,0,0,2,0,do not exclude
1,227,0,../static/images/invador2.png,4,20,8,2.5,right,70,-1,507,-1.843099796,2,0,2,0,do not exclude
1,228,0,../static/images/invador3.png,1,80,2,40,right,74,1,966,0.447140494,0,0,2,0,do not exclude
1,229,0,../static/images/invador4.png,2,20,2,10,right,70,-1,947,0.352337519,0,0,2,0,do not exclude
1,230,0,../static/images/invador3.png,1,80,2,40,right,74,1,968,0.457119755,0,0,2,0,do not exclude
1,231,0,../static/images/invador3.png,1,80,2,40,left,70,1,1061,0.921155369,0,0,2,0,do not exclude
1,232,0,../static/images/invador2.png,4,20,8,2.5,right,74,1,525,-1.753286452,1,0,2,0,do not exclude
1,233,0,../static/images/invador3.png,1,80,2,40,right,74,1,960,0.417202713,0,0,2,0,do not exclude
1,234,0,../static/images/invador3.png,1,80,2,40,right,74,1,946,0.347347889,0,0,2,0,do not exclude
1,235,0,../static/images/invador3.png,1,80,2,40,right,74,1,952,0.377285671,0,0,2,0,do not exclude
1,236,0,../static/images/invador4.png,2,20,2,10,left,70,1,712,-0.820225593,1,0,2,0,do not exclude
1,237,0,../static/images/invador1.png,3,80,8,10,left,70,1,468,-2.037695377,1,0,2,0,do not exclude
1,238,0,../static/images/invador4.png,2,20,2,10,left,74,-1,1100,1.11575095,0,0,2,0,do not exclude
1,239,0,../static/images/invador3.png,1,80,2,40,right,74,1,801,-0.376148499,0,0,2,0,do not exclude
1,240,0,../static/images/invador3.png,1,80,2,40,left,70,1,1013,0.681653117,0,0,2,0,do not exclude
1,241,0,../static/images/invador3.png,1,80,2,40,left,74,-1,563,-1.563680502,2,0,2,0,do not exclude
1,242,0,../static/images/invador2.png,4,20,8,2.5,left,74,-1,993,0.581860511,0,0,2,0,do not exclude
1,243,0,../static/images/invador1.png,3,80,8,10,left,74,-1,1206,1.644651757,0,0,2,0,do not exclude
1,244,0,../static/images/invador3.png,1,80,2,40,left,70,1,889,0.062938964,0,0,2,0,do not exclude
1,245,0,../static/images/invador3.png,1,80,2,40,right,74,1,1068,0.956082781,0,0,2,0,do not exclude
1,246,0,../static/images/invador2.png,4,20,8,2.5,right,70,-1,999,0.611798293,0,0,2,0,do not exclude
1,247,0,../static/images/invador3.png,1,80,2,40,right,74,1,811,-0.326252196,0,0,2,0,do not exclude
1,248,0,../static/images/invador3.png,1,80,2,40,right,74,1,879,0.013042661,0,0,2,0,do not exclude
1,249,0,../static/images/invador1.png,3,80,8,10,left,70,1,1212,1.674589539,0,0,2,0,do not exclude
1,250,0,../static/images/invador4.png,2,20,2,10,left,74,-1,1125,1.240491706,0,0,2,0,do not exclude
1,251,0,../static/images/invador3.png,1,80,2,40,left,70,1,856,-0.101718835,0,0,2,0,do not exclude
1,252,0,../static/images/invador2.png,4,20,8,2.5,left,74,-1,1070,0.966062042,0,0,2,0,do not exclude
1,253,0,../static/images/invador1.png,3,80,8,10,right,70,-1,1010,0.666684226,0,0,2,0,do not exclude
1,254,0,../static/images/invador3.png,1,80,2,40,left,74,-1,946,0.347347889,2,0,2,0,do not exclude
1,255,0,../static/images/invador3.png,1,80,2,40,left,70,1,791,-0.426044802,0,0,2,0,do not exclude
1,256,0,../static/images/invador3.png,1,80,2,40,left,70,1,996,0.596829402,0,0,2,0,do not exclude
1,257,0,../static/images/invador4.png,2,20,2,10,left,70,1,572,-1.518773829,1,0,2,0,do not exclude
1,258,0,../static/images/invador3.png,1,80,2,40,left,70,1,896,0.097866376,0,0,2,0,do not exclude
1,259,0,../static/images/invador3.png,1,80,2,40,right,74,1,946,0.347347889,0,0,2,0,do not exclude
1,260,0,../static/images/invador1.png,3,80,8,10,right,70,-1,972,0.477078276,0,0,2,0,do not exclude
1,261,0,../static/images/invador3.png,1,80,2,40,right,74,1,860,-0.081760314,0,0,2,0,do not exclude
1,262,0,../static/images/invador4.png,2,20,2,10,left,70,1,423,-2.262228739,1,0,2,0,do not exclude
1,263,0,../static/images/invador3.png,1,80,2,40,right,74,1,529,-1.733327931,1,0,2,0,do not exclude
1,264,0,../static/images/invador3.png,1,80,2,40,left,70,1,435,-2.202353175,1,0,2,0,do not exclude
1,265,0,../static/images/invador2.png,4,20,8,2.5,left,70,1,567,-1.543721981,1,0,2,0,do not exclude
1,266,0,../static/images/invador3.png,1,80,2,40,right,74,1,988,0.55691236,0,0,2,0,do not exclude
1,267,0,../static/images/invador3.png,1,80,2,40,left,70,1,1048,0.856290176,0,0,2,0,do not exclude
1,268,0,../static/images/invador1.png,3,80,8,10,right,70,-1,1072,0.976041302,0,0,2,0,do not exclude
1,269,0,../static/images/invador3.png,1,80,2,40,left,70,1,895,0.092876746,0,0,2,0,do not exclude
1,270,0,../static/images/invador3.png,1,80,2,40,right,74,1,970,0.467099015,0,0,2,0,do not exclude
1,271,0,../static/images/invador2.png,4,20,8,2.5,left,74,-1,1251,1.869185119,0,0,2,0,do not exclude
1,272,0,../static/images/invador4.png,2,20,2,10,right,70,-1,1023,0.731549419,0,0,2,0,do not exclude
1,273,0,../static/images/invador3.png,1,80,2,40,right,74,1,860,-0.081760314,0,0,2,0,do not exclude
1,274,0,../static/images/invador3.png,1,80,2,40,right,74,1,977,0.502026427,0,0,2,0,do not exclude
1,275,0,../static/images/invador2.png,4,20,8,2.5,left,74,-1,994,0.586850142,0,0,2,0,do not exclude
1,276,0,../static/images/invador1.png,3,80,8,10,left,70,1,609,-1.33415751,1,0,2,0,do not exclude
1,277,0,../static/images/invador4.png,2,20,2,10,right,70,-1,1060,0.916165739,0,0,2,0,do not exclude
1,278,0,../static/images/invador3.png,1,80,2,40,left,70,1,518,-1.788213864,1,0,2,0,do not exclude
1,279,0,../static/images/invador3.png,1,80,2,40,right,74,1,1043,0.831342025,2,0,2,0,do not exclude
1,280,0,../static/images/invador3.png,1,80,2,40,left,70,1,874,-0.01190549,0,0,2,0,do not exclude
1,281,0,../static/images/invador3.png,1,80,2,40,right,70,-1,559,-1.583639023,2,0,2,0,do not exclude
1,282,0,../static/images/invador3.png,1,80,2,40,right,74,1,481,-1.972830183,1,0,2,0,do not exclude
1,283,0,../static/images/invador1.png,3,80,8,10,right,70,-1,1107,1.150678361,0,0,2,0,do not exclude
1,284,0,../static/images/invador4.png,2,20,2,10,left,74,-1,1090,1.065854647,0,0,2,0,do not exclude
1,285,0,../static/images/invador2.png,4,20,8,2.5,left,74,-1,1134,1.285398379,0,0,2,0,do not exclude
1,286,0,../static/images/invador3.png,1,80,2,40,right,70,-1,1012,0.676663486,2,0,2,0,do not exclude
1,287,0,../static/images/invador3.png,1,80,2,40,right,74,1,508,-1.838110166,1,0,2,0,do not exclude
1,288,0,../static/images/invador3.png,1,80,2,40,right,74,1,1027,0.75150794,0,0,2,0,do not exclude
1,289,0,../static/images/invador4.png,2,20,2,10,right,70,-1,946,0.347347889,0,0,2,0,do not exclude
1,290,0,../static/images/invador3.png,1,80,2,40,left,70,1,818,-0.291324785,0,0,2,0,do not exclude
1,291,0,../static/images/invador1.png,3,80,8,10,left,74,-1,969,0.462109385,0,0,2,0,do not exclude
1,292,0,../static/images/invador3.png,1,80,2,40,left,70,1,950,0.36730641,0,0,2,0,do not exclude
1,293,0,../static/images/invador2.png,4,20,8,2.5,right,70,-1,892,0.077907855,0,0,2,0,do not exclude
1,294,0,../static/images/invador3.png,1,80,2,40,right,74,1,682,-0.9699145,1,0,2,0,do not exclude
1,295,0,../static/images/invador4.png,2,20,2,10,left,74,-1,914,0.187679721,0,0,2,0,do not exclude
1,296,0,../static/images/invador2.png,4,20,8,2.5,left,74,-1,1138,1.3053569,0,0,2,0,do not exclude
1,297,0,../static/images/invador1.png,3,80,8,10,left,74,-1,882,0.028011552,0,0,2,0,do not exclude
1,298,0,../static/images/invador3.png,1,80,2,40,right,74,1,908,0.157741939,0,0,2,0,do not exclude
1,299,0,../static/images/invador3.png,1,80,2,40,left,70,1,936,0.297451586,0,0,2,0,do not exclude
1,300,0,../static/images/invador3.png,1,80,2,40,right,74,1,918,0.207638242,0,0,2,0,do not exclude
1,301,0,../static/images/invador1.png,3,80,8,10,right,70,-1,879,0.013042661,0,0,2,0,do not exclude
1,302,0,../static/images/invador3.png,1,80,2,40,right,74,1,959,0.412213082,0,0,2,0,do not exclude
1,303,0,../static/images/invador3.png,1,80,2,40,right,70,-1,463,-2.062643528,2,0,2,0,do not exclude
1,304,0,../static/images/invador2.png,4,20,8,2.5,left,74,-1,1019,0.711590898,0,0,2,0,do not exclude
1,305,0,../static/images/invador3.png,1,80,2,40,right,74,1,997,0.601819032,0,0,2,0,do not exclude
1,306,0,../static/images/invador4.png,2,20,2,10,right,70,-1,898,0.107845636,0,0,2,0,do not exclude
1,307,0,../static/images/invador3.png,1,80,2,40,right,74,1,1129,1.260450227,0,0,2,0,do not exclude
1,308,0,../static/images/invador2.png,4,20,8,2.5,right,70,-1,812,-0.321262566,2,0,2,0,do not exclude
1,309,0,../static/images/invador1.png,3,80,8,10,left,74,-1,1117,1.200574664,0,0,2,0,do not exclude
1,310,0,../static/images/invador3.png,1,80,2,40,left,70,1,953,0.382275301,0,0,2,0,do not exclude
1,311,0,../static/images/invador3.png,1,80,2,40,left,70,1,1082,1.025937605,0,0,2,0,do not exclude
1,312,0,../static/images/invador4.png,2,20,2,10,left,74,-1,957,0.402233822,0,0,2,0,do not exclude
1,313,0,../static/images/invador3.png,1,80,2,40,right,74,1,965,0.442150864,0,0,2,0,do not exclude
1,314,0,../static/images/invador3.png,1,80,2,40,left,70,1,844,-0.161594398,0,0,2,0,do not exclude
1,315,0,../static/images/invador2.png,4,20,8,2.5,right,70,-1,1132,1.275419118,0,0,2,0,do not exclude
1,316,0,../static/images/invador3.png,1,80,2,40,right,74,1,520,-1.778234603,1,0,2,0,do not exclude
1,317,0,../static/images/invador3.png,1,80,2,40,left,70,1,868,-0.041843271,0,0,2,0,do not exclude
1,318,0,../static/images/invador4.png,2,20,2,10,left,74,-1,892,0.077907855,0,0,2,0,do not exclude
1,319,0,../static/images/invador3.png,1,80,2,40,right,74,1,680,-0.979893761,1,0,2,0,do not exclude
1,320,0,../static/images/invador3.png,1,80,2,40,right,74,1,485,-1.952871662,1,0,2,0,do not exclude
1,321,0,../static/images/invador1.png,3,80,8,10,right,70,-1,894,0.087887115,0,0,2,0,do not exclude
1,322,0,../static/images/invador3.png,1,80,2,40,left,70,1,873,-0.01689512,0,0,2,0,do not exclude
1,323,0,../static/images/invador4.png,2,20,2,10,left,70,1,680,-0.979893761,1,0,2,0,do not exclude
1,324,0,../static/images/invador3.png,1,80,2,40,left,70,1,468,-2.037695377,1,0,2,0,do not exclude
1,325,0,../static/images/invador2.png,4,20,8,2.5,right,70,-1,989,0.56190199,0,0,2,0,do not exclude
1,326,0,../static/images/invador1.png,3,80,8,10,right,70,-1,489,-1.932913141,2,0,2,0,do not exclude
1,327,0,../static/images/invador3.png,1,80,2,40,left,70,1,933,0.282482696,0,0,2,0,do not exclude
1,328,0,../static/images/invador3.png,1,80,2,40,right,74,1,536,-1.698400519,1,0,2,0,do not exclude
1,329,0,../static/images/invador3.png,1,80,2,40,right,74,1,1046,0.846310915,0,0,2,0,do not exclude
1,330,0,../static/images/invador3.png,1,80,2,40,left,70,1,1066,0.946103521,0,0,2,0,do not exclude
1,331,0,../static/images/invador4.png,2,20,2,10,right,70,-1,1116,1.195585034,0,0,2,0,do not exclude
1,332,0,../static/images/invador1.png,3,80,8,10,left,70,NaN,NaN,NaN,0,1,2,0,do not exclude
1,333,0,../static/images/invador3.png,1,80,2,40,left,74,-1,849,-0.136646246,2,0,2,0,do not exclude
1,334,0,../static/images/invador2.png,4,20,8,2.5,right,74,1,1022,0.726559789,0,0,2,0,do not exclude
1,335,0,../static/images/invador3.png,1,80,2,40,left,70,1,775,-0.505878886,0,0,2,0,do not exclude
1,336,0,../static/images/invador4.png,2,20,2,10,right,70,-1,946,0.347347889,0,0,2,0,do not exclude
1,337,0,../static/images/invador3.png,1,80,2,40,left,70,1,941,0.322399738,0,0,2,0,do not exclude
1,338,0,../static/images/invador3.png,1,80,2,40,left,70,1,887,0.052959704,0,0,2,0,do not exclude
1,339,0,../static/images/invador1.png,3,80,8,10,right,70,-1,855,-0.106708465,2,0,2,0,do not exclude
1,340,0,../static/images/invador3.png,1,80,2,40,right,74,1,1141,1.32032579,0,0,2,0,do not exclude
1,341,0,../static/images/invador3.png,1,80,2,40,left,70,1,897,0.102856006,0,0,2,0,do not exclude
1,342,0,../static/images/invador2.png,4,20,8,2.5,right,74,1,503,-1.863058318,1,0,2,0,do not exclude
1,343,0,../static/images/invador3.png,1,80,2,40,right,74,1,1004,0.636746444,0,0,2,0,do not exclude
1,344,0,../static/images/invador4.png,2,20,2,10,right,70,-1,929,0.262524175,0,0,2,0,do not exclude
1,345,0,../static/images/invador3.png,1,80,2,40,left,70,1,1032,0.776456092,0,0,2,0,do not exclude
1,346,0,../static/images/invador2.png,4,20,8,2.5,left,74,-1,1117,1.200574664,0,0,2,0,do not exclude
1,347,0,../static/images/invador3.png,1,80,2,40,left,70,1,923,0.232586393,0,0,2,0,do not exclude
1,348,0,../static/images/invador1.png,3,80,8,10,left,74,-1,1059,0.911176109,0,0,2,0,do not exclude
1,349,0,../static/images/invador3.png,1,80,2,40,right,74,1,849,-0.136646246,0,0,2,0,do not exclude
1,350,0,../static/images/invador2.png,4,20,8,2.5,left,74,-1,976,0.497036797,0,0,2,0,do not exclude
1,351,0,../static/images/invador3.png,1,80,2,40,right,74,1,1082,1.025937605,0,0,2,0,do not exclude
1,352,0,../static/images/invador1.png,3,80,8,10,right,74,1,644,-1.15952045,1,0,2,0,do not exclude
1,353,0,../static/images/invador3.png,1,80,2,40,right,74,1,844,-0.161594398,0,0,2,0,do not exclude
1,354,0,../static/images/invador3.png,1,80,2,40,right,74,1,803,-0.366169239,0,0,2,0,do not exclude
1,355,0,../static/images/invador4.png,2,20,2,10,left,70,1,441,-2.172415394,1,0,2,0,do not exclude
1,356,0,../static/images/invador3.png,1,80,2,40,left,70,1,963,0.432171604,0,0,2,0,do not exclude
1,357,0,../static/images/invador3.png,1,80,2,40,left,70,1,523,-1.763265712,1,0,2,0,do not exclude
1,358,0,../static/images/invador3.png,1,80,2,40,left,70,1,833,-0.216480331,0,0,2,0,do not exclude
1,359,0,../static/images/invador3.png,1,80,2,40,left,70,1,812,-0.321262566,0,0,2,0,do not exclude
1,360,0,../static/images/invador2.png,4,20,8,2.5,right,70,-1,1132,1.275419118,0,0,2,0,do not exclude
1,361,0,../static/images/invador1.png,3,80,8,10,right,74,1,1137,1.300367269,0,0,2,0,do not exclude
1,362,0,../static/images/invador3.png,1,80,2,40,left,70,1,462,-2.067633158,1,0,2,0,do not exclude
1,363,0,../static/images/invador4.png,2,20,2,10,left,70,1,481,-1.972830183,1,0,2,0,do not exclude
1,364,0,../static/images/invador3.png,1,80,2,40,left,74,-1,936,0.297451586,0,0,2,0,do not exclude
1,365,0,../static/images/invador3.png,1,80,2,40,right,74,1,1022,0.726559789,0,0,2,0,do not exclude
1,366,0,../static/images/invador3.png,1,80,2,40,right,74,1,955,0.392254561,0,0,2,0,do not exclude
1,367,0,../static/images/invador2.png,4,20,8,2.5,right,70,-1,988,0.55691236,0,0,2,0,do not exclude
1,368,0,../static/images/invador1.png,3,80,8,10,right,70,-1,1075,0.991010193,0,0,2,0,do not exclude
1,369,0,../static/images/invador4.png,2,20,2,10,right,70,-1,1136,1.295377639,0,0,2,0,do not exclude
1,370,0,../static/images/invador3.png,1,80,2,40,right,74,1,939,0.312420477,0,0,2,0,do not exclude
1,371,0,../static/images/invador1.png,3,80,8,10,left,74,-1,465,-2.052664268,2,0,2,0,do not exclude
1,372,0,../static/images/invador3.png,1,80,2,40,right,74,1,841,-0.176563289,0,0,2,0,do not exclude
1,373,0,../static/images/invador3.png,1,80,2,40,left,74,-1,497,-1.892996099,2,0,2,0,do not exclude
1,374,0,../static/images/invador2.png,4,20,8,2.5,right,70,-1,1047,0.851300546,0,0,2,0,do not exclude
1,375,0,../static/images/invador3.png,1,80,2,40,right,70,-1,593,-1.413991594,2,0,2,0,do not exclude
1,376,0,../static/images/invador3.png,1,80,2,40,right,74,1,873,-0.01689512,0,0,2,0,do not exclude
1,377,0,../static/images/invador4.png,2,20,2,10,left,70,1,566,-1.548711611,1,0,2,0,do not exclude
1,378,0,../static/images/invador3.png,1,80,2,40,right,74,1,822,-0.271366264,0,0,2,0,do not exclude
1,379,0,../static/images/invador4.png,2,20,2,10,left,74,-1,604,-1.359105661,2,0,2,0,do not exclude
1,380,0,../static/images/invador3.png,1,80,2,40,right,74,1,550,-1.628545695,1,0,2,0,do not exclude
1,381,0,../static/images/invador3.png,1,80,2,40,right,74,1,896,0.097866376,0,0,2,0,do not exclude
1,382,0,../static/images/invador2.png,4,20,8,2.5,right,70,-1,1086,1.045896126,0,0,2,0,do not exclude
1,383,0,../static/images/invador3.png,1,80,2,40,right,74,1,503,-1.863058318,1,0,2,0,do not exclude
1,384,0,../static/images/invador1.png,3,80,8,10,right,74,1,517,-1.793203494,1,0,2,0,do not exclude
1,385,0,../static/images/invador3.png,1,80,2,40,right,74,1,787,-0.446003323,0,0,2,0,do not exclude
1,386,0,../static/images/invador2.png,4,20,8,2.5,left,74,-1,994,0.586850142,0,0,2,0,do not exclude
1,387,0,../static/images/invador1.png,3,80,8,10,left,74,-1,715,-0.805256702,2,0,2,0,do not exclude
1,388,0,../static/images/invador3.png,1,80,2,40,left,70,1,866,-0.051822532,0,0,2,0,do not exclude
1,389,0,../static/images/invador3.png,1,80,2,40,right,74,1,870,-0.031864011,0,0,2,0,do not exclude
1,390,0,../static/images/invador4.png,2,20,2,10,left,74,-1,907,0.152752309,0,0,2,0,do not exclude
1,391,0,../static/images/invador3.png,1,80,2,40,right,74,1,853,-0.116687725,0,0,2,0,do not exclude
1,392,0,../static/images/invador1.png,3,80,8,10,right,70,-1,1007,0.651715335,0,0,2,0,do not exclude
1,393,0,../static/images/invador4.png,2,20,2,10,left,74,-1,969,0.462109385,0,0,2,0,do not exclude
1,394,0,../static/images/invador3.png,1,80,2,40,right,74,1,611,-1.324178249,1,0,2,0,do not exclude
1,395,0,../static/images/invador3.png,1,80,2,40,right,74,1,513,-1.813162015,1,0,2,0,do not exclude
1,396,0,../static/images/invador3.png,1,80,2,40,right,74,1,1007,0.651715335,0,0,2,0,do not exclude
1,397,0,../static/images/invador3.png,1,80,2,40,right,70,-1,438,-2.187384285,2,0,2,0,do not exclude
1,398,0,../static/images/invador2.png,4,20,8,2.5,left,74,-1,976,0.497036797,0,0,2,0,do not exclude
1,399,0,../static/images/invador3.png,1,80,2,40,right,74,1,921,0.222607132,0,0,2,0,do not exclude
1,400,0,../static/images/invador3.png,1,80,2,40,left,70,1,888,0.057949334,0,0,2,0,do not exclude
1,401,0,../static/images/invador2.png,4,20,8,2.5,right,70,-1,1046,0.846310915,0,0,2,0,do not exclude
1,402,0,../static/images/invador3.png,1,80,2,40,right,74,1,943,0.332378998,0,0,2,0,do not exclude
1,403,0,../static/images/invador3.png,1,80,2,40,left,70,1,944,0.337368629,0,0,2,0,do not exclude
1,404,0,../static/images/invador4.png,2,20,2,10,right,70,-1,434,-2.207342806,2,0,2,0,do not exclude
1,405,0,../static/images/invador1.png,3,80,8,10,left,70,1,443,-2.162436133,1,0,2,0,do not exclude
1,406,0,../static/images/invador1.png,3,80,8,10,left,74,-1,920,0.217617502,0,0,2,0,do not exclude
1,407,0,../static/images/invador3.png,1,80,2,40,right,74,1,1059,0.911176109,0,0,2,0,do not exclude
1,408,0,../static/images/invador3.png,1,80,2,40,right,74,1,1226,1.744444363,0,0,2,0,do not exclude
1,409,0,../static/images/invador4.png,2,20,2,10,left,74,-1,961,0.422192343,0,0,2,0,do not exclude
1,410,0,../static/images/invador2.png,4,20,8,2.5,left,74,-1,1126,1.245481336,0,0,2,0,do not exclude
1,411,0,../static/images/invador3.png,1,80,2,40,left,70,1,876,-0.001926229,0,0,2,0,do not exclude
1,412,0,../static/images/invador3.png,1,80,2,40,left,74,-1,650,-1.129582669,2,0,2,0,do not exclude
1,413,0,../static/images/invador4.png,2,20,2,10,left,74,-1,915,0.192669351,0,0,2,0,do not exclude
1,414,0,../static/images/invador3.png,1,80,2,40,right,74,1,971,0.472088646,0,0,2,0,do not exclude
1,415,0,../static/images/invador1.png,3,80,8,10,left,70,1,532,-1.71835904,1,0,2,0,do not exclude
1,416,0,../static/images/invador3.png,1,80,2,40,left,70,1,872,-0.02188475,0,0,2,0,do not exclude
1,417,0,../static/images/invador2.png,4,20,8,2.5,right,70,-1,1202,1.624693236,0,0,2,0,do not exclude
1,418,0,../static/images/invador3.png,1,80,2,40,left,70,1,852,-0.121677356,0,0,2,0,do not exclude
1,419,0,../static/images/invador3.png,1,80,2,40,left,70,1,963,0.432171604,0,0,2,0,do not exclude
1,420,0,../static/images/invador3.png,1,80,2,40,right,74,1,824,-0.261387003,0,0,2,0,do not exclude
1,421,0,../static/images/invador2.png,4,20,8,2.5,right,70,-1,968,0.457119755,0,0,2,0,do not exclude
1,422,0,../static/images/invador4.png,2,20,2,10,left,74,-1,558,-1.588628653,2,0,2,0,do not exclude
1,423,0,../static/images/invador3.png,1,80,2,40,left,70,1,900,0.117824897,0,0,2,0,do not exclude
1,424,0,../static/images/invador3.png,1,80,2,40,right,74,1,979,0.512005688,0,0,2,0,do not exclude
1,425,0,../static/images/invador3.png,1,80,2,40,right,74,1,892,0.077907855,0,0,2,0,do not exclude
1,426,0,../static/images/invador1.png,3,80,8,10,left,74,-1,887,0.052959704,0,0,2,0,do not exclude
1,427,0,../static/images/invador3.png,1,80,2,40,left,70,1,847,-0.146625507,0,0,2,0,do not exclude
1,428,0,../static/images/invador1.png,3,80,8,10,left,74,-1,885,0.042980443,0,0,2,0,do not exclude
1,429,0,../static/images/invador2.png,4,20,8,2.5,left,74,-1,1092,1.075833907,0,0,2,0,do not exclude
1,430,0,../static/images/invador3.png,1,80,2,40,left,70,1,992,0.576870881,0,0,2,0,do not exclude
1,431,0,../static/images/invador3.png,1,80,2,40,right,74,1,466,-2.047674637,1,0,2,0,do not exclude
1,432,0,../static/images/invador4.png,2,20,2,10,left,74,-1,651,-1.124593039,2,0,2,0,do not exclude
1,433,0,../static/images/invador3.png,1,80,2,40,left,70,1,560,-1.578649393,1,0,2,0,do not exclude
2,0,1,../static/images/invador4.png,3,80,8,10,left,70,1,958,0.66526263,0,0,2,1,>19 missed
2,1,1,../static/images/invador2.png,4,20,8,2.5,right,70,-1,792,-0.427105479,2,0,2,1,>19 missed
2,2,1,../static/images/invador2.png,4,20,8,2.5,right,74,NaN,NaN,NaN,0,1,2,1,>19 missed
2,3,1,../static/images/invador2.png,4,20,8,2.5,right,74,1,901,0.290172376,1,0,2,1,>19 missed
2,4,1,../static/images/invador2.png,4,20,8,2.5,right,70,-1,881,0.15856176,0,0,2,1,>19 missed
2,5,1,../static/images/invador1.png,2,20,2,10,right,74,1,1060,1.33647677,0,0,2,1,>19 missed
2,6,1,../static/images/invador3.png,1,80,2,40,left,74,-1,982,0.823195369,0,0,2,1,>19 missed
2,7,1,../static/images/invador4.png,3,80,8,10,right,70,-1,1285,2.817096196,0,0,2,1,>19 missed
2,8,1,../static/images/invador2.png,4,20,8,2.5,right,70,-1,897,0.263850253,0,0,2,1,>19 missed
2,9,1,../static/images/invador2.png,4,20,8,2.5,right,74,1,1157,1.974788256,0,0,2,1,>19 missed
2,10,1,../static/images/invador1.png,2,20,2,10,right,74,1,847,-0.065176286,1,0,2,1,>19 missed
2,11,1,../static/images/invador2.png,4,20,8,2.5,right,74,NaN,NaN,NaN,0,1,2,1,>19 missed
2,12,1,../static/images/invador2.png,4,20,8,2.5,left,70,1,937,0.527071484,0,0,2,1,>19 missed
2,13,1,../static/images/invador3.png,1,80,2,40,right,74,1,1018,1.060094477,0,0,2,1,>19 missed
2,14,1,../static/images/invador2.png,4,20,8,2.5,left,74,-1,1272,2.731549295,2,0,2,1,>19 missed
2,15,1,../static/images/invador2.png,4,20,8,2.5,left,74,-1,1030,1.139060846,0,0,2,1,>19 missed
2,16,1,../static/images/invador1.png,2,20,2,10,left,70,1,872,0.099336983,1,0,2,1,>19 missed
2,17,1,../static/images/invador4.png,3,80,8,10,left,74,-1,837,-0.130981594,0,0,2,1,>19 missed
2,18,1,../static/images/invador2.png,4,20,8,2.5,left,74,-1,1187,2.172204179,0,0,2,1,>19 missed
2,19,1,../static/images/invador3.png,1,80,2,40,right,74,1,679,-1.170705458,0,0,2,1,>19 missed
2,20,1,../static/images/invador2.png,4,20,8,2.5,left,74,-1,1062,1.349637831,0,0,2,1,>19 missed
2,21,1,../static/images/invador1.png,2,20,2,10,right,74,1,752,-0.690326711,1,0,2,1,>19 missed
2,22,1,../static/images/invador2.png,4,20,8,2.5,left,74,-1,865,0.053273268,0,0,2,1,>19 missed
2,23,1,../static/images/invador2.png,4,20,8,2.5,right,70,-1,745,-0.736390426,0,0,2,1,>19 missed
2,24,1,../static/images/invador2.png,4,20,8,2.5,right,74,NaN,NaN,NaN,2,1,2,1,>19 missed
2,25,1,../static/images/invador2.png,4,20,8,2.5,right,70,-1,808,-0.321816987,0,0,2,1,>19 missed
2,26,1,../static/images/invador4.png,3,80,8,10,right,70,-1,736,-0.795615203,0,0,2,1,>19 missed
2,27,1,../static/images/invador3.png,1,80,2,40,left,70,NaN,NaN,NaN,0,1,2,1,>19 missed
2,28,1,../static/images/invador3.png,1,80,2,40,right,74,NaN,NaN,NaN,0,1,2,1,>19 missed
2,29,1,../static/images/invador2.png,4,20,8,2.5,left,74,-1,997,0.921903331,0,0,2,1,>19 missed
2,30,1,../static/images/invador4.png,3,80,8,10,right,70,-1,707,-0.986450596,0,0,2,1,>19 missed
2,31,1,../static/images/invador2.png,4,20,8,2.5,left,74,-1,790,-0.440266541,0,0,2,1,>19 missed
2,32,1,../static/images/invador1.png,2,20,2,10,right,74,NaN,NaN,NaN,2,1,2,1,>19 missed
2,33,1,../static/images/invador2.png,4,20,8,2.5,left,70,1,984,0.836356431,1,0,2,1,>19 missed
2,34,1,../static/images/invador2.png,4,20,8,2.5,right,74,NaN,NaN,NaN,0,1,2,1,>19 missed
2,35,1,../static/images/invador4.png,3,80,8,10,right,70,-1,945,0.57971573,0,0,2,1,>19 missed
2,36,1,../static/images/invador2.png,4,20,8,2.5,right,70,-1,940,0.546813076,2,0,2,1,>19 missed
2,37,1,../static/images/invador3.png,1,80,2,40,right,74,1,707,-0.986450596,0,0,2,1,>19 missed
2,38,1,../static/images/invador1.png,2,20,2,10,left,70,1,763,-0.617940872,1,0,2,1,>19 missed
2,39,1,../static/images/invador2.png,4,20,8,2.5,left,74,-1,891,0.224367068,0,0,2,1,>19 missed
2,40,1,../static/images/invador2.png,4,20,8,2.5,left,74,-1,755,-0.670585118,2,0,2,1,>19 missed
2,41,1,../static/images/invador2.png,4,20,8,2.5,right,70,-1,662,-1.282574481,2,0,2,1,>19 missed
2,42,1,../static/images/invador2.png,4,20,8,2.5,left,70,NaN,NaN,NaN,0,1,2,1,>19 missed
2,43,1,../static/images/invador2.png,4,20,8,2.5,right,70,-1,1102,1.612859063,0,0,2,1,>19 missed
2,44,1,../static/images/invador2.png,4,20,8,2.5,left,74,-1,805,-0.341558579,0,0,2,1,>19 missed
2,45,1,../static/images/invador1.png,2,20,2,10,right,74,1,817,-0.26259221,0,0,2,1,>19 missed
2,46,1,../static/images/invador2.png,4,20,8,2.5,left,74,-1,1026,1.112738723,0,0,2,1,>19 missed
2,47,1,../static/images/invador4.png,3,80,8,10,right,70,-1,696,-1.058836434,0,0,2,1,>19 missed
2,48,1,../static/images/invador3.png,1,80,2,40,left,70,1,647,-1.381282443,0,0,2,1,>19 missed
2,49,1,../static/images/invador2.png,4,20,8,2.5,left,74,-1,884,0.178303352,0,0,2,1,>19 missed
2,50,1,../static/images/invador2.png,4,20,8,2.5,right,70,-1,813,-0.288914333,1,0,2,1,>19 missed
2,51,1,../static/images/invador4.png,3,80,8,10,right,74,1,1090,1.533892693,1,0,2,1,>19 missed
2,52,1,../static/images/invador1.png,2,20,2,10,left,70,1,892,0.230947599,0,0,2,1,>19 missed
2,53,1,../static/images/invador2.png,4,20,8,2.5,left,74,-1,872,0.099336983,0,0,2,1,>19 missed
2,54,1,../static/images/invador3.png,1,80,2,40,right,74,1,725,-0.868001042,0,0,2,1,>19 missed
2,55,1,../static/images/invador2.png,4,20,8,2.5,right,74,1,928,0.467846707,1,0,2,1,>19 missed
2,56,1,../static/images/invador2.png,4,20,8,2.5,right,70,-1,826,-0.203367433,0,0,2,1,>19 missed
2,57,1,../static/images/invador2.png,4,20,8,2.5,left,74,-1,745,-0.736390426,0,0,2,1,>19 missed
2,58,1,../static/images/invador1.png,2,20,2,10,left,74,-1,677,-1.183866519,0,0,2,1,>19 missed
2,59,1,../static/images/invador2.png,4,20,8,2.5,right,70,-1,759,-0.644262995,0,0,2,1,>19 missed
2,60,1,../static/images/invador2.png,4,20,8,2.5,right,70,-1,705,-0.999611657,1,0,2,1,>19 missed
2,61,1,../static/images/invador3.png,1,80,2,40,right,74,1,720,-0.900903696,0,0,2,1,>19 missed
2,62,1,../static/images/invador4.png,3,80,8,10,right,70,-1,829,-0.183625841,0,0,2,1,>19 missed
2,63,1,../static/images/invador1.png,2,20,2,10,left,70,1,1000,0.941644923,0,0,2,1,>19 missed
2,64,1,../static/images/invador4.png,3,80,8,10,left,74,-1,785,-0.473169195,0,0,2,1,>19 missed
2,65,1,../static/images/invador3.png,1,80,2,40,left,70,1,821,-0.236270087,2,0,2,1,>19 missed
2,66,1,../static/images/invador2.png,4,20,8,2.5,left,70,1,604,-1.664245266,1,0,2,1,>19 missed
2,67,1,../static/images/invador2.png,4,20,8,2.5,right,74,1,771,-0.565296626,1,0,2,1,>19 missed
2,68,1,../static/images/invador2.png,4,20,8,2.5,left,74,-1,1143,1.882660825,0,0,2,1,>19 missed
2,69,1,../static/images/invador2.png,4,20,8,2.5,right,70,-1,880,0.151981229,0,0,2,1,>19 missed
2,70,1,../static/images/invador2.png,4,20,8,2.5,left,74,-1,896,0.257269722,0,0,2,1,>19 missed
2,71,1,../static/images/invador3.png,1,80,2,40,right,74,1,655,-1.328638196,0,0,2,1,>19 missed
2,72,1,../static/images/invador4.png,3,80,8,10,right,70,-1,1054,1.296993585,0,0,2,1,>19 missed
2,73,1,../static/images/invador2.png,4,20,8,2.5,left,74,-1,856,-0.005951509,0,0,2,1,>19 missed
2,74,1,../static/images/invador2.png,4,20,8,2.5,right,70,-1,791,-0.43368601,0,0,2,1,>19 missed
2,75,1,../static/images/invador2.png,4,20,8,2.5,right,74,NaN,NaN,NaN,1,1,2,1,>19 missed
2,76,1,../static/images/invador1.png,2,20,2,10,right,74,1,921,0.421782991,0,0,2,1,>19 missed
2,77,1,../static/images/invador2.png,4,20,8,2.5,left,70,NaN,NaN,NaN,0,1,2,1,>19 missed
2,78,1,../static/images/invador1.png,2,20,2,10,right,74,1,1116,1.704986494,0,0,2,1,>19 missed
2,79,1,../static/images/invador2.png,4,20,8,2.5,right,70,-1,911,0.355977683,0,0,2,1,>19 missed
2,80,1,../static/images/invador2.png,4,20,8,2.5,left,74,-1,813,-0.288914333,0,0,2,1,>19 missed
2,81,1,../static/images/invador4.png,3,80,8,10,left,74,-1,809,-0.315236456,1,0,2,1,>19 missed
2,82,1,../static/images/invador3.png,1,80,2,40,right,74,1,834,-0.150723187,0,0,2,1,>19 missed
2,83,1,../static/images/invador2.png,4,20,8,2.5,right,70,-1,804,-0.34813911,0,0,2,1,>19 missed
2,84,1,../static/images/invador4.png,3,80,8,10,left,74,-1,875,0.119078575,2,0,2,1,>19 missed
2,85,1,../static/images/invador2.png,4,20,8,2.5,left,74,-1,819,-0.249431148,0,0,2,1,>19 missed
2,86,1,../static/images/invador2.png,4,20,8,2.5,right,70,-1,908,0.336236091,0,0,2,1,>19 missed
2,87,1,../static/images/invador2.png,4,20,8,2.5,left,70,NaN,NaN,NaN,1,1,2,1,>19 missed
2,88,1,../static/images/invador3.png,1,80,2,40,right,74,1,820,-0.242850618,0,0,2,1,>19 missed
2,89,1,../static/images/invador2.png,4,20,8,2.5,left,74,-1,1018,1.060094477,1,0,2,1,>19 missed
2,90,1,../static/images/invador1.png,2,20,2,10,right,74,1,1070,1.402282078,2,0,2,1,>19 missed
2,91,1,../static/images/invador2.png,4,20,8,2.5,left,74,-1,791,-0.43368601,1,0,2,1,>19 missed
2,92,1,../static/images/invador1.png,2,20,2,10,left,70,1,1052,1.283832524,0,0,2,1,>19 missed
2,93,1,../static/images/invador2.png,4,20,8,2.5,left,74,-1,851,-0.038854163,0,0,2,1,>19 missed
2,94,1,../static/images/invador3.png,1,80,2,40,left,70,1,806,-0.334978049,0,0,2,1,>19 missed
2,95,1,../static/images/invador4.png,3,80,8,10,right,70,-1,713,-0.946967411,0,0,2,1,>19 missed
2,96,1,../static/images/invador2.png,4,20,8,2.5,right,70,-1,711,-0.960128473,0,0,2,1,>19 missed
2,97,1,../static/images/invador2.png,4,20,8,2.5,right,70,-1,772,-0.558716095,2,0,2,1,>19 missed
2,98,1,../static/images/invador2.png,4,20,8,2.5,left,74,-1,717,-0.920645288,0,0,2,1,>19 missed
2,99,1,../static/images/invador2.png,4,20,8,2.5,left,74,-1,880,0.151981229,0,0,2,1,>19 missed
2,100,1,../static/images/invador2.png,4,20,8,2.5,right,70,-1,639,-1.433926689,2,0,2,1,>19 missed
2,101,1,../static/images/invador2.png,4,20,8,2.5,left,74,-1,777,-0.525813441,0,0,2,1,>19 missed
2,102,1,../static/images/invador3.png,1,80,2,40,right,74,1,854,-0.019112571,2,0,2,1,>19 missed
2,103,1,../static/images/invador4.png,3,80,8,10,left,74,-1,746,-0.729809895,0,0,2,1,>19 missed
2,104,1,../static/images/invador1.png,2,20,2,10,left,70,1,915,0.382299807,0,0,2,1,>19 missed
2,105,1,../static/images/invador2.png,4,20,8,2.5,right,70,-1,1024,1.099577662,0,0,2,1,>19 missed
2,106,1,../static/images/invador4.png,3,80,8,10,right,70,-1,708,-0.979870065,0,0,2,1,>19 missed
2,107,1,../static/images/invador1.png,2,20,2,10,right,74,1,760,-0.637682464,0,0,2,1,>19 missed
2,108,1,../static/images/invador2.png,4,20,8,2.5,right,70,-1,919,0.40862193,0,0,2,1,>19 missed
2,109,1,../static/images/invador3.png,1,80,2,40,right,74,1,787,-0.460008133,0,0,2,1,>19 missed
2,110,1,../static/images/invador2.png,4,20,8,2.5,left,74,-1,792,-0.427105479,1,0,2,1,>19 missed
2,111,1,../static/images/invador2.png,4,20,8,2.5,left,74,-1,913,0.369138745,2,0,2,1,>19 missed
2,112,1,../static/images/invador1.png,2,20,2,10,left,70,1,810,-0.308655925,0,0,2,1,>19 missed
2,113,1,../static/images/invador2.png,4,20,8,2.5,left,74,-1,964,0.704745815,0,0,2,1,>19 missed
2,114,1,../static/images/invador2.png,4,20,8,2.5,right,70,-1,785,-0.473169195,0,0,2,1,>19 missed
2,115,1,../static/images/invador3.png,1,80,2,40,left,70,1,874,0.112498045,0,0,2,1,>19 missed
2,116,1,../static/images/invador2.png,4,20,8,2.5,right,70,-1,1352,3.257991758,0,0,2,1,>19 missed
2,117,1,../static/images/invador4.png,3,80,8,10,left,74,-1,721,-0.894323165,0,0,2,1,>19 missed
2,118,1,../static/images/invador2.png,4,20,8,2.5,right,70,-1,823,-0.223109025,1,0,2,1,>19 missed
2,119,1,../static/images/invador2.png,4,20,8,2.5,right,70,-1,721,-0.894323165,0,0,2,1,>19 missed
2,120,1,../static/images/invador1.png,2,20,2,10,left,74,-1,878,0.138820168,2,0,2,1,>19 missed
2,121,1,../static/images/invador3.png,1,80,2,40,right,74,1,789,-0.446847072,1,0,2,1,>19 missed
2,122,1,../static/images/invador2.png,4,20,8,2.5,left,74,-1,894,0.24410866,0,0,2,1,>19 missed
2,123,1,../static/images/invador2.png,4,20,8,2.5,right,70,-1,694,-1.071997496,0,0,2,1,>19 missed
2,124,1,../static/images/invador2.png,4,20,8,2.5,left,74,-1,820,-0.242850618,0,0,2,1,>19 missed
2,125,1,../static/images/invador4.png,3,80,8,10,right,70,-1,866,0.059853798,0,0,2,1,>19 missed
2,126,1,../static/images/invador2.png,4,20,8,2.5,right,70,-1,741,-0.762712549,0,0,2,1,>19 missed
2,127,1,../static/images/invador3.png,1,80,2,40,right,74,1,804,-0.34813911,1,0,2,1,>19 missed
2,128,1,../static/images/invador2.png,4,20,8,2.5,right,70,-1,816,-0.269172741,2,0,2,1,>19 missed
2,129,1,../static/images/invador1.png,2,20,2,10,left,70,1,744,-0.742970957,0,0,2,1,>19 missed
2,130,1,../static/images/invador2.png,4,20,8,2.5,left,70,1,780,-0.506071849,1,0,2,1,>19 missed
2,131,1,../static/images/invador4.png,3,80,8,10,right,70,-1,1480,4.100299698,0,0,2,1,>19 missed
2,132,1,../static/images/invador2.png,4,20,8,2.5,right,74,NaN,NaN,NaN,0,1,2,1,>19 missed
2,133,1,../static/images/invador4.png,3,80,8,10,right,70,-1,835,-0.144142656,0,0,2,1,>19 missed
2,134,1,../static/images/invador2.png,4,20,8,2.5,left,70,NaN,NaN,NaN,1,1,2,1,>19 missed
2,135,1,../static/images/invador2.png,4,20,8,2.5,left,74,-1,940,0.546813076,0,0,2,1,>19 missed
2,136,1,../static/images/invador2.png,4,20,8,2.5,right,70,-1,816,-0.269172741,0,0,2,1,>19 missed
2,137,1,../static/images/invador3.png,1,80,2,40,right,74,1,696,-1.058836434,2,0,2,1,>19 missed
2,138,1,../static/images/invador2.png,4,20,8,2.5,right,70,-1,941,0.553393607,1,0,2,1,>19 missed
2,139,1,../static/images/invador1.png,2,20,2,10,right,74,1,736,-0.795615203,1,0,2,1,>19 missed
2,140,1,../static/images/invador3.png,1,80,2,40,right,74,1,769,-0.578457687,2,0,2,1,>19 missed
2,141,1,../static/images/invador2.png,4,20,8,2.5,left,74,-1,802,-0.361300172,0,0,2,1,>19 missed
2,142,1,../static/images/invador2.png,4,20,8,2.5,left,74,-1,681,-1.157544396,0,0,2,1,>19 missed
2,143,1,../static/images/invador2.png,4,20,8,2.5,left,74,-1,721,-0.894323165,0,0,2,1,>19 missed
2,144,1,../static/images/invador4.png,3,80,8,10,left,74,-1,591,-1.749792166,0,0,2,1,>19 missed
2,145,1,../static/images/invador1.png,2,20,2,10,right,70,-1,767,-0.591618749,1,0,2,1,>19 missed
2,146,1,../static/images/invador2.png,4,20,8,2.5,left,74,-1,947,0.592876792,1,0,2,1,>19 missed
2,147,1,../static/images/invador3.png,1,80,2,40,right,74,1,755,-0.670585118,0,0,2,1,>19 missed
2,148,1,../static/images/invador2.png,4,20,8,2.5,left,74,-1,1268,2.705227172,0,0,2,1,>19 missed
2,149,1,../static/images/invador4.png,3,80,8,10,left,74,-1,728,-0.848259449,0,0,2,1,>19 missed
2,150,1,../static/images/invador2.png,4,20,8,2.5,left,74,-1,726,-0.861420511,0,0,2,1,>19 missed
2,151,1,../static/images/invador1.png,2,20,2,10,left,70,1,765,-0.604779811,0,0,2,1,>19 missed
2,152,1,../static/images/invador2.png,4,20,8,2.5,left,74,-1,923,0.434944053,0,0,2,1,>19 missed
2,153,1,../static/images/invador2.png,4,20,8,2.5,left,74,-1,719,-0.907484226,2,0,2,1,>19 missed
2,154,1,../static/images/invador4.png,3,80,8,10,right,70,-1,632,-1.479990404,0,0,2,1,>19 missed
2,155,1,../static/images/invador3.png,1,80,2,40,left,70,1,765,-0.604779811,0,0,2,1,>19 missed
2,156,1,../static/images/invador2.png,4,20,8,2.5,left,74,-1,1252,2.59993868,0,0,2,1,>19 missed
2,157,1,../static/images/invador2.png,4,20,8,2.5,right,70,-1,759,-0.644262995,0,0,2,1,>19 missed
2,158,1,../static/images/invador2.png,4,20,8,2.5,right,70,-1,709,-0.973289534,0,0,2,1,>19 missed
2,159,1,../static/images/invador1.png,2,20,2,10,left,70,1,1225,2.422264349,0,0,2,1,>19 missed
2,160,1,../static/images/invador2.png,4,20,8,2.5,left,74,-1,1022,1.0864166,2,0,2,1,>19 missed
2,161,1,../static/images/invador2.png,4,20,8,2.5,right,70,-1,614,-1.598439958,0,0,2,1,>19 missed
2,162,1,../static/images/invador2.png,4,20,8,2.5,left,74,-1,692,-1.085158558,0,0,2,1,>19 missed
2,163,1,../static/images/invador2.png,4,20,8,2.5,left,74,-1,780,-0.506071849,0,0,2,1,>19 missed
2,164,1,../static/images/invador3.png,1,80,2,40,right,70,-1,808,-0.321816987,0,0,2,1,>19 missed
2,165,1,../static/images/invador4.png,3,80,8,10,right,70,-1,698,-1.045675373,0,0,2,1,>19 missed
2,166,1,../static/images/invador1.png,2,20,2,10,left,70,1,802,-0.361300172,0,0,2,1,>19 missed
2,167,1,../static/images/invador2.png,4,20,8,2.5,left,74,-1,868,0.07301486,2,0,2,1,>19 missed
2,168,1,../static/images/invador1.png,2,20,2,10,left,70,1,778,-0.51923291,0,0,2,1,>19 missed
2,169,1,../static/images/invador2.png,4,20,8,2.5,right,70,-1,770,-0.571877157,0,0,2,1,>19 missed
2,170,1,../static/images/invador4.png,3,80,8,10,right,70,-1,919,0.40862193,1,0,2,1,>19 missed
2,171,1,../static/images/invador2.png,4,20,8,2.5,left,74,-1,659,-1.302316073,0,0,2,1,>19 missed
2,172,1,../static/images/invador2.png,4,20,8,2.5,right,70,-1,645,-1.394443504,1,0,2,1,>19 missed
2,173,1,../static/images/invador3.png,1,80,2,40,left,70,1,1088,1.520731632,1,0,2,1,>19 missed
2,174,1,../static/images/invador2.png,4,20,8,2.5,left,74,-1,849,-0.052015225,0,0,2,1,>19 missed
2,175,1,../static/images/invador2.png,4,20,8,2.5,left,74,-1,855,-0.01253204,2,0,2,1,>19 missed
2,176,1,../static/images/invador2.png,4,20,8,2.5,left,74,-1,790,-0.440266541,0,0,2,1,>19 missed
2,177,1,../static/images/invador1.png,2,20,2,10,left,70,1,818,-0.256011679,2,0,2,1,>19 missed
2,178,1,../static/images/invador3.png,1,80,2,40,right,74,1,852,-0.032273633,0,0,2,1,>19 missed
2,179,1,../static/images/invador2.png,4,20,8,2.5,right,70,-1,938,0.533652015,0,0,2,1,>19 missed
2,180,1,../static/images/invador2.png,4,20,8,2.5,right,70,-1,665,-1.262832889,0,0,2,1,>19 missed
2,181,1,../static/images/invador4.png,3,80,8,10,left,74,-1,565,-1.920885967,0,0,2,1,>19 missed
2,182,1,../static/images/invador4.png,3,80,8,10,left,74,-1,569,-1.894563844,0,0,2,1,>19 missed
2,183,1,../static/images/invador2.png,4,20,8,2.5,left,74,-1,755,-0.670585118,0,0,2,1,>19 missed
2,184,1,../static/images/invador1.png,2,20,2,10,left,70,1,740,-0.76929308,0,0,2,1,>19 missed
2,185,1,../static/images/invador2.png,4,20,8,2.5,right,70,-1,745,-0.736390426,0,0,2,1,>19 missed
2,186,1,../static/images/invador3.png,1,80,2,40,right,74,1,883,0.171722822,2,0,2,1,>19 missed
2,187,1,../static/images/invador2.png,4,20,8,2.5,right,70,-1,849,-0.052015225,0,0,2,1,>19 missed
2,188,1,../static/images/invador2.png,4,20,8,2.5,left,74,-1,709,-0.973289534,0,0,2,1,>19 missed
2,189,1,../static/images/invador3.png,1,80,2,40,left,70,1,717,-0.920645288,1,0,2,1,>19 missed
2,190,1,../static/images/invador2.png,4,20,8,2.5,left,74,-1,1206,2.297234264,0,0,2,1,>19 missed
2,191,1,../static/images/invador1.png,2,20,2,10,right,74,1,856,-0.005951509,0,0,2,1,>19 missed
2,192,1,../static/images/invador2.png,4,20,8,2.5,left,74,-1,809,-0.315236456,0,0,2,1,>19 missed
2,193,1,../static/images/invador2.png,4,20,8,2.5,right,70,-1,778,-0.51923291,0,0,2,1,>19 missed
2,194,1,../static/images/invador4.png,3,80,8,10,left,74,-1,614,-1.598439958,1,0,2,1,>19 missed
2,195,1,../static/images/invador2.png,4,20,8,2.5,right,70,-1,821,-0.236270087,0,0,2,1,>19 missed
2,196,1,../static/images/invador2.png,4,20,8,2.5,right,70,-1,671,-1.223349704,0,0,2,1,>19 missed
2,197,1,../static/images/invador1.png,2,20,2,10,right,74,1,787,-0.460008133,1,0,2,1,>19 missed
2,198,1,../static/images/invador3.png,1,80,2,40,left,70,1,868,0.07301486,0,0,2,1,>19 missed
2,199,1,../static/images/invador2.png,4,20,8,2.5,left,70,NaN,NaN,NaN,2,1,2,1,>19 missed
2,200,1,../static/images/invador2.png,4,20,8,2.5,left,74,-1,988,0.862678554,0,0,2,1,>19 missed
2,201,1,../static/images/invador4.png,3,80,8,10,right,70,-1,685,-1.131222273,0,0,2,1,>19 missed
2,202,1,../static/images/invador2.png,4,20,8,2.5,right,70,-1,760,-0.637682464,0,0,2,1,>19 missed
2,203,1,../static/images/invador2.png,4,20,8,2.5,left,74,-1,893,0.237528129,0,0,2,1,>19 missed
2,204,1,../static/images/invador3.png,1,80,2,40,left,70,1,796,-0.400783356,0,0,2,1,>19 missed
2,205,1,../static/images/invador4.png,3,80,8,10,right,70,-1,890,0.217786537,0,0,2,1,>19 missed
2,206,1,../static/images/invador2.png,4,20,8,2.5,right,70,-1,825,-0.209947964,0,0,2,1,>19 missed
2,207,1,../static/images/invador1.png,2,20,2,10,left,70,1,710,-0.966709003,0,0,2,1,>19 missed
2,208,1,../static/images/invador2.png,4,20,8,2.5,right,70,-1,829,-0.183625841,0,0,2,1,>19 missed
2,209,1,../static/images/invador2.png,4,20,8,2.5,left,74,-1,794,-0.413944418,0,0,2,1,>19 missed
2,210,1,../static/images/invador2.png,4,20,8,2.5,left,74,-1,712,-0.953547942,0,0,2,1,>19 missed
2,211,1,../static/images/invador4.png,3,80,8,10,right,70,-1,695,-1.065416965,2,0,2,1,>19 missed
2,212,1,../static/images/invador2.png,4,20,8,2.5,right,70,-1,708,-0.979870065,0,0,2,1,>19 missed
2,213,1,../static/images/invador1.png,2,20,2,10,right,74,1,710,-0.966709003,0,0,2,1,>19 missed
2,214,1,../static/images/invador2.png,4,20,8,2.5,right,70,-1,999,0.935064392,0,0,2,1,>19 missed
2,215,1,../static/images/invador3.png,1,80,2,40,left,70,1,957,0.658682099,2,0,2,1,>19 missed
2,216,1,../static/images/invador2.png,4,20,8,2.5,right,70,-1,846,-0.071756817,0,0,2,1,>19 missed
2,217,1,../static/images/invador2.png,4,20,8,2.5,left,-1,NaN,NaN,NaN,2,1,2,1,>19 missed
2,218,1,../static/images/invador2.png,4,20,8,2.5,left,70,NaN,NaN,NaN,0,1,2,1,>19 missed
2,219,1,../static/images/invador1.png,2,20,2,10,right,74,1,837,-0.130981594,0,0,2,1,>19 missed
2,220,1,../static/images/invador4.png,3,80,8,10,right,70,-1,720,-0.900903696,0,0,2,1,>19 missed
2,221,1,../static/images/invador2.png,4,20,8,2.5,right,70,-1,791,-0.43368601,0,0,2,1,>19 missed
2,222,1,../static/images/invador2.png,4,20,8,2.5,left,74,-1,870,0.086175921,2,0,2,1,>19 missed
2,223,1,../static/images/invador3.png,1,80,2,40,left,70,1,716,-0.927225819,0,0,2,1,>19 missed
2,224,1,../static/images/invador1.png,2,20,2,10,right,74,1,984,0.836356431,0,0,2,1,>19 missed
2,225,1,../static/images/invador3.png,1,80,2,40,right,74,1,1035,1.1719635,1,0,2,1,>19 missed
2,226,1,../static/images/invador2.png,4,20,8,2.5,left,74,-1,1013,1.027191823,0,0,2,1,>19 missed
2,227,1,../static/images/invador2.png,4,20,8,2.5,right,70,-1,716,-0.927225819,1,0,2,1,>19 missed
2,228,1,../static/images/invador2.png,4,20,8,2.5,left,74,-1,863,0.040112206,0,0,2,1,>19 missed
2,229,1,../static/images/invador4.png,3,80,8,10,right,70,-1,662,-1.282574481,0,0,2,1,>19 missed
2,230,1,../static/images/invador2.png,4,20,8,2.5,left,74,-1,683,-1.144383335,2,0,2,1,>19 missed
2,231,1,../static/images/invador2.png,4,20,8,2.5,left,74,-1,663,-1.27599395,0,0,2,1,>19 missed
2,232,1,../static/images/invador4.png,3,80,8,10,left,74,-1,685,-1.131222273,0,0,2,1,>19 missed
2,233,1,../static/images/invador2.png,4,20,8,2.5,right,70,-1,754,-0.677165649,0,0,2,1,>19 missed
2,234,1,../static/images/invador2.png,4,20,8,2.5,right,70,-1,698,-1.045675373,0,0,2,1,>19 missed
2,235,1,../static/images/invador3.png,1,80,2,40,left,70,1,797,-0.394202826,0,0,2,1,>19 missed
2,236,1,../static/images/invador1.png,2,20,2,10,left,70,1,770,-0.571877157,0,0,2,1,>19 missed
2,237,1,../static/images/invador2.png,4,20,8,2.5,left,74,-1,858,0.007209552,0,0,2,1,>19 missed
2,238,1,../static/images/invador2.png,4,20,8,2.5,left,74,-1,812,-0.295494864,0,0,2,1,>19 missed
2,239,1,../static/images/invador1.png,2,20,2,10,left,70,1,806,-0.334978049,0,0,2,1,>19 missed
2,240,0,../static/images/invador3.png,1,80,2,40,left,70,1,923,0.434944053,0,0,2,1,>19 missed
2,241,0,../static/images/invador3.png,1,80,2,40,right,74,1,929,0.474427238,0,0,2,1,>19 missed
2,242,0,../static/images/invador1.png,2,20,2,10,right,74,1,965,0.711326346,0,0,2,1,>19 missed
2,243,0,../static/images/invador4.png,3,80,8,10,left,74,-1,976,0.783712184,0,0,2,1,>19 missed
2,244,0,../static/images/invador3.png,1,80,2,40,right,74,1,757,-0.657424057,0,0,2,1,>19 missed
2,245,0,../static/images/invador1.png,2,20,2,10,right,74,1,917,0.395460868,0,0,2,1,>19 missed
2,246,0,../static/images/invador3.png,1,80,2,40,right,74,1,674,-1.203608112,0,0,2,1,>19 missed
2,247,0,../static/images/invador3.png,1,80,2,40,right,74,1,699,-1.039094842,0,0,2,1,>19 missed
2,248,0,../static/images/invador2.png,4,20,8,2.5,right,70,-1,809,-0.315236456,2,0,2,1,>19 missed
2,249,0,../static/images/invador4.png,3,80,8,10,left,74,-1,800,-0.374461233,0,0,2,1,>19 missed
2,250,0,../static/images/invador3.png,1,80,2,40,left,70,1,804,-0.34813911,0,0,2,1,>19 missed
2,251,0,../static/images/invador3.png,1,80,2,40,right,74,1,658,-1.308896604,2,0,2,1,>19 missed
2,252,0,../static/images/invador3.png,1,80,2,40,right,74,1,812,-0.295494864,0,0,2,1,>19 missed
2,253,0,../static/images/invador1.png,2,20,2,10,left,70,1,871,0.092756452,0,0,2,1,>19 missed
2,254,0,../static/images/invador4.png,3,80,8,10,right,70,-1,912,0.362558214,0,0,2,1,>19 missed
2,255,0,../static/images/invador3.png,1,80,2,40,right,74,1,629,-1.499731997,0,0,2,1,>19 missed
2,256,0,../static/images/invador2.png,4,20,8,2.5,right,74,NaN,NaN,NaN,0,1,2,1,>19 missed
2,257,0,../static/images/invador3.png,1,80,2,40,right,74,1,812,-0.295494864,0,0,2,1,>19 missed
2,258,0,../static/images/invador3.png,1,80,2,40,left,70,1,735,-0.802195734,0,0,2,1,>19 missed
2,259,0,../static/images/invador3.png,1,80,2,40,right,74,1,789,-0.446847072,0,0,2,1,>19 missed
2,260,0,../static/images/invador3.png,1,80,2,40,left,70,1,1087,1.514151101,0,0,2,1,>19 missed
2,261,0,../static/images/invador3.png,1,80,2,40,right,74,1,713,-0.946967411,0,0,2,1,>19 missed
2,262,0,../static/images/invador2.png,4,20,8,2.5,left,74,-1,1082,1.481248447,0,0,2,1,>19 missed
2,263,0,../static/images/invador1.png,2,20,2,10,left,70,1,832,-0.163884248,0,0,2,1,>19 missed
2,264,0,../static/images/invador4.png,3,80,8,10,right,70,-1,920,0.415202461,0,0,2,1,>19 missed
2,265,0,../static/images/invador3.png,1,80,2,40,left,70,1,794,-0.413944418,0,0,2,1,>19 missed
2,266,0,../static/images/invador3.png,1,80,2,40,left,70,1,915,0.382299807,0,0,2,1,>19 missed
2,267,0,../static/images/invador2.png,4,20,8,2.5,left,74,-1,981,0.816614838,0,0,2,1,>19 missed
2,268,0,../static/images/invador1.png,2,20,2,10,right,74,1,880,0.151981229,2,0,2,1,>19 missed
2,269,0,../static/images/invador3.png,1,80,2,40,left,70,1,773,-0.552135564,2,0,2,1,>19 missed
2,270,0,../static/images/invador3.png,1,80,2,40,right,74,NaN,NaN,NaN,0,1,2,1,>19 missed
2,271,0,../static/images/invador3.png,1,80,2,40,right,74,1,851,-0.038854163,0,0,2,1,>19 missed
2,272,0,../static/images/invador4.png,3,80,8,10,right,70,-1,1028,1.125899785,0,0,2,1,>19 missed
2,273,0,../static/images/invador4.png,3,80,8,10,left,74,-1,840,-0.111240002,0,0,2,1,>19 missed
2,274,0,../static/images/invador1.png,2,20,2,10,right,70,-1,771,-0.565296626,0,0,2,1,>19 missed
2,275,0,../static/images/invador3.png,1,80,2,40,left,70,1,829,-0.183625841,0,0,2,1,>19 missed
2,276,0,../static/images/invador3.png,1,80,2,40,right,74,1,846,-0.071756817,0,0,2,1,>19 missed
2,277,0,../static/images/invador3.png,1,80,2,40,right,74,1,752,-0.690326711,2,0,2,1,>19 missed
2,278,0,../static/images/invador2.png,4,20,8,2.5,left,70,NaN,NaN,NaN,0,1,2,1,>19 missed
2,279,0,../static/images/invador3.png,1,80,2,40,right,74,1,938,0.533652015,0,0,2,1,>19 missed
2,280,0,../static/images/invador3.png,1,80,2,40,right,74,1,747,-0.723229365,0,0,2,1,>19 missed
2,281,0,../static/images/invador3.png,1,80,2,40,left,70,1,751,-0.696907241,0,0,2,1,>19 missed
2,282,0,../static/images/invador3.png,1,80,2,40,left,70,1,823,-0.223109025,1,0,2,1,>19 missed
2,283,0,../static/images/invador4.png,3,80,8,10,right,70,-1,837,-0.130981594,0,0,2,1,>19 missed
2,284,0,../static/images/invador2.png,4,20,8,2.5,left,74,-1,1099,1.59311747,0,0,2,1,>19 missed
2,285,0,../static/images/invador3.png,1,80,2,40,left,70,1,754,-0.677165649,0,0,2,1,>19 missed
2,286,0,../static/images/invador1.png,2,20,2,10,right,74,1,896,0.257269722,1,0,2,1,>19 missed
2,287,0,../static/images/invador3.png,1,80,2,40,right,74,1,782,-0.492910787,2,0,2,1,>19 missed
2,288,0,../static/images/invador1.png,2,20,2,10,left,70,1,953,0.632359976,0,0,2,1,>19 missed
2,289,0,../static/images/invador3.png,1,80,2,40,left,70,1,788,-0.453427603,0,0,2,1,>19 missed
2,290,0,../static/images/invador3.png,1,80,2,40,left,70,1,793,-0.420524949,2,0,2,1,>19 missed
2,291,0,../static/images/invador4.png,3,80,8,10,left,74,-1,831,-0.170464779,1,0,2,1,>19 missed
2,292,0,../static/images/invador3.png,1,80,2,40,left,70,1,880,0.151981229,0,0,2,1,>19 missed
2,293,0,../static/images/invador2.png,4,20,8,2.5,right,70,-1,932,0.49416883,0,0,2,1,>19 missed
2,294,0,../static/images/invador1.png,2,20,2,10,right,74,1,976,0.783712184,1,0,2,1,>19 missed
2,295,0,../static/images/invador3.png,1,80,2,40,left,70,1,678,-1.177285988,1,0,2,1,>19 missed
2,296,0,../static/images/invador4.png,3,80,8,10,left,74,-1,772,-0.558716095,0,0,2,1,>19 missed
2,297,0,../static/images/invador3.png,1,80,2,40,right,74,1,906,0.32307503,0,0,2,1,>19 missed
2,298,0,../static/images/invador3.png,1,80,2,40,right,74,1,709,-0.973289534,0,0,2,1,>19 missed
2,299,0,../static/images/invador3.png,1,80,2,40,left,70,1,1029,1.132480316,0,0,2,1,>19 missed
2,300,0,../static/images/invador2.png,4,20,8,2.5,left,70,NaN,NaN,NaN,2,1,2,1,>19 missed
2,301,0,../static/images/invador2.png,4,20,8,2.5,right,70,-1,1101,1.606278532,0,0,2,1,>19 missed
2,302,0,../static/images/invador3.png,1,80,2,40,right,74,1,888,0.204625476,0,0,2,1,>19 missed
2,303,0,../static/images/invador4.png,3,80,8,10,left,74,-1,686,-1.124641742,0,0,2,1,>19 missed
2,304,0,../static/images/invador3.png,1,80,2,40,right,74,1,906,0.32307503,0,0,2,1,>19 missed
2,305,0,../static/images/invador1.png,2,20,2,10,left,70,1,815,-0.275753271,0,0,2,1,>19 missed
2,306,0,../static/images/invador3.png,1,80,2,40,right,74,1,948,0.599457322,0,0,2,1,>19 missed
2,307,0,../static/images/invador3.png,1,80,2,40,right,74,1,799,-0.381041764,0,0,2,1,>19 missed
2,308,0,../static/images/invador1.png,2,20,2,10,right,74,1,828,-0.190206371,0,0,2,1,>19 missed
2,309,0,../static/images/invador4.png,3,80,8,10,left,70,NaN,NaN,NaN,2,1,2,1,>19 missed
2,310,0,../static/images/invador3.png,1,80,2,40,right,74,1,1100,1.599698001,2,0,2,1,>19 missed
2,311,0,../static/images/invador2.png,4,20,8,2.5,right,70,-1,1155,1.961627194,0,0,2,1,>19 missed
2,312,0,../static/images/invador3.png,1,80,2,40,left,70,1,940,0.546813076,0,0,2,1,>19 missed
2,313,0,../static/images/invador3.png,1,80,2,40,right,74,1,805,-0.341558579,0,0,2,1,>19 missed
2,314,0,../static/images/invador3.png,1,80,2,40,left,70,1,779,-0.51265238,0,0,2,1,>19 missed
2,315,0,../static/images/invador3.png,1,80,2,40,left,70,1,814,-0.282333802,0,0,2,1,>19 missed
2,316,0,../static/images/invador3.png,1,80,2,40,right,74,1,761,-0.631101934,0,0,2,1,>19 missed
2,317,0,../static/images/invador2.png,4,20,8,2.5,left,74,-1,1066,1.375959955,0,0,2,1,>19 missed
2,318,0,../static/images/invador3.png,1,80,2,40,left,74,-1,1370,3.376441312,0,0,2,1,>19 missed
2,319,0,../static/images/invador4.png,3,80,8,10,right,70,-1,1260,2.652582926,0,0,2,1,>19 missed
2,320,0,../static/images/invador3.png,1,80,2,40,left,70,1,893,0.237528129,0,0,2,1,>19 missed
2,321,0,../static/images/invador1.png,2,20,2,10,left,70,1,930,0.481007768,0,0,2,1,>19 missed
2,322,0,../static/images/invador3.png,1,80,2,40,right,74,1,685,-1.131222273,0,0,2,1,>19 missed
2,323,0,../static/images/invador1.png,2,20,2,10,right,74,1,623,-1.539215181,0,0,2,1,>19 missed
2,324,0,../static/images/invador3.png,1,80,2,40,left,70,1,733,-0.815356796,2,0,2,1,>19 missed
2,325,0,../static/images/invador4.png,3,80,8,10,left,74,-1,725,-0.868001042,0,0,2,1,>19 missed
2,326,0,../static/images/invador3.png,1,80,2,40,right,74,1,834,-0.150723187,2,0,2,1,>19 missed
2,327,0,../static/images/invador2.png,4,20,8,2.5,right,70,-1,886,0.191464414,0,0,2,1,>19 missed
2,328,0,../static/images/invador3.png,1,80,2,40,right,74,1,799,-0.381041764,0,0,2,1,>19 missed
2,329,0,../static/images/invador1.png,2,20,2,10,left,74,-1,913,0.369138745,2,0,2,1,>19 missed
2,330,0,../static/images/invador2.png,4,20,8,2.5,left,74,-1,1017,1.053513946,0,0,2,1,>19 missed
2,331,0,../static/images/invador3.png,1,80,2,40,left,70,1,713,-0.946967411,0,0,2,1,>19 missed
2,332,0,../static/images/invador3.png,1,80,2,40,right,74,1,802,-0.361300172,0,0,2,1,>19 missed
2,333,0,../static/images/invador4.png,3,80,8,10,left,74,-1,794,-0.413944418,0,0,2,1,>19 missed
2,334,0,../static/images/invador3.png,1,80,2,40,left,70,1,845,-0.078337348,0,0,2,1,>19 missed
2,335,0,../static/images/invador3.png,1,80,2,40,right,74,1,790,-0.440266541,1,0,2,1,>19 missed
2,336,0,../static/images/invador1.png,2,20,2,10,right,74,1,907,0.32965556,0,0,2,1,>19 missed
2,337,0,../static/images/invador3.png,1,80,2,40,right,74,1,782,-0.492910787,0,0,2,1,>19 missed
2,338,0,../static/images/invador3.png,1,80,2,40,right,74,1,936,0.520490953,2,0,2,1,>19 missed
2,339,0,../static/images/invador3.png,1,80,2,40,left,70,1,883,0.171722822,0,0,2,1,>19 missed
2,340,0,../static/images/invador4.png,3,80,8,10,right,70,-1,968,0.731067938,0,0,2,1,>19 missed
2,341,0,../static/images/invador3.png,1,80,2,40,left,70,1,787,-0.460008133,0,0,2,1,>19 missed
2,342,0,../static/images/invador2.png,4,20,8,2.5,right,74,NaN,NaN,NaN,0,1,2,1,>19 missed
2,343,0,../static/images/invador3.png,1,80,2,40,left,70,1,900,0.283591845,0,0,2,1,>19 missed
2,344,0,../static/images/invador3.png,1,80,2,40,right,74,1,888,0.204625476,0,0,2,1,>19 missed
2,345,0,../static/images/invador2.png,4,20,8,2.5,right,70,-1,999,0.935064392,0,0,2,1,>19 missed
2,346,0,../static/images/invador4.png,3,80,8,10,left,74,-1,685,-1.131222273,0,0,2,1,>19 missed
2,347,0,../static/images/invador1.png,2,20,2,10,right,70,-1,877,0.132239637,0,0,2,1,>19 missed
2,348,0,../static/images/invador3.png,1,80,2,40,right,74,1,611,-1.618181551,2,0,2,1,>19 missed
2,349,0,../static/images/invador3.png,1,80,2,40,left,70,1,820,-0.242850618,0,0,2,1,>19 missed
2,350,0,../static/images/invador3.png,1,80,2,40,left,70,1,787,-0.460008133,0,0,2,1,>19 missed
2,351,0,../static/images/invador1.png,2,20,2,10,right,74,1,811,-0.302075395,1,0,2,1,>19 missed
2,352,0,../static/images/invador4.png,3,80,8,10,right,70,-1,927,0.461266176,0,0,2,1,>19 missed
2,353,0,../static/images/invador3.png,1,80,2,40,left,70,1,1311,2.988189996,0,0,2,1,>19 missed
2,354,0,../static/images/invador2.png,4,20,8,2.5,left,74,-1,926,0.454685645,0,0,2,1,>19 missed
2,355,0,../static/images/invador3.png,1,80,2,40,right,74,1,863,0.040112206,0,0,2,1,>19 missed
2,356,0,../static/images/invador3.png,1,80,2,40,right,74,1,770,-0.571877157,2,0,2,1,>19 missed
2,357,0,../static/images/invador2.png,4,20,8,2.5,right,74,NaN,NaN,NaN,1,1,2,1,>19 missed
2,358,0,../static/images/invador4.png,3,80,8,10,left,74,-1,1610,4.955768699,0,0,2,1,>19 missed
2,359,0,../static/images/invador3.png,1,80,2,40,left,70,1,972,0.757390061,0,0,2,1,>19 missed
2,360,0,../static/images/invador3.png,1,80,2,40,left,70,1,939,0.540232545,0,0,2,1,>19 missed
2,361,0,../static/images/invador3.png,1,80,2,40,left,70,1,766,-0.59819928,0,0,2,1,>19 missed
2,362,0,../static/images/invador1.png,2,20,2,10,right,74,1,917,0.395460868,0,0,2,1,>19 missed
2,363,0,../static/images/invador3.png,1,80,2,40,left,70,1,806,-0.334978049,0,0,2,1,>19 missed
2,364,0,../static/images/invador3.png,1,80,2,40,right,74,1,697,-1.052255904,0,0,2,1,>19 missed
2,365,0,../static/images/invador3.png,1,80,2,40,left,70,1,835,-0.144142656,0,0,2,1,>19 missed
2,366,0,../static/images/invador4.png,3,80,8,10,left,74,-1,815,-0.275753271,0,0,2,1,>19 missed
2,367,0,../static/images/invador2.png,4,20,8,2.5,left,70,NaN,NaN,NaN,2,1,2,1,>19 missed
2,368,0,../static/images/invador1.png,2,20,2,10,right,70,-1,837,-0.130981594,1,0,2,1,>19 missed
2,369,0,../static/images/invador3.png,1,80,2,40,left,70,1,950,0.612618384,2,0,2,1,>19 missed
2,370,0,../static/images/invador3.png,1,80,2,40,left,70,1,904,0.309913968,0,0,2,1,>19 missed
2,371,0,../static/images/invador1.png,2,20,2,10,left,70,1,1063,1.356218362,0,0,2,1,>19 missed
2,372,0,../static/images/invador3.png,1,80,2,40,right,74,1,946,0.586296261,0,0,2,1,>19 missed
2,373,0,../static/images/invador3.png,1,80,2,40,right,74,1,1341,3.185605919,0,0,2,1,>19 missed
2,374,0,../static/images/invador4.png,3,80,8,10,right,70,-1,947,0.592876792,0,0,2,1,>19 missed
2,375,0,../static/images/invador3.png,1,80,2,40,left,70,1,764,-0.611360341,0,0,2,1,>19 missed
2,376,0,../static/images/invador2.png,4,20,8,2.5,left,74,-1,821,-0.236270087,0,0,2,1,>19 missed
2,377,0,../static/images/invador3.png,1,80,2,40,left,70,1,1543,4.514873137,2,0,2,1,>19 missed
2,378,0,../static/images/invador3.png,1,80,2,40,right,74,1,971,0.75080953,0,0,2,1,>19 missed
2,379,0,../static/images/invador3.png,1,80,2,40,right,74,1,748,-0.716648834,1,0,2,1,>19 missed
2,380,0,../static/images/invador2.png,4,20,8,2.5,right,74,NaN,NaN,NaN,0,1,2,1,>19 missed
2,381,0,../static/images/invador3.png,1,80,2,40,left,70,1,831,-0.170464779,2,0,2,1,>19 missed
2,382,0,../static/images/invador1.png,2,20,2,10,left,70,1,1018,1.060094477,0,0,2,1,>19 missed
2,383,0,../static/images/invador4.png,3,80,8,10,left,74,-1,867,0.066434329,2,0,2,1,>19 missed
2,384,0,../static/images/invador3.png,1,80,2,40,right,74,1,772,-0.558716095,0,0,2,1,>19 missed
2,385,0,../static/images/invador1.png,2,20,2,10,right,74,1,915,0.382299807,0,0,2,1,>19 missed
2,386,0,../static/images/invador3.png,1,80,2,40,left,70,1,788,-0.453427603,0,0,2,1,>19 missed
2,387,0,../static/images/invador4.png,3,80,8,10,left,74,-1,811,-0.302075395,2,0,2,1,>19 missed
2,388,0,../static/images/invador2.png,4,20,8,2.5,right,70,-1,976,0.783712184,1,0,2,1,>19 missed
2,389,0,../static/images/invador3.png,1,80,2,40,left,70,1,982,0.823195369,2,0,2,1,>19 missed
2,390,0,../static/images/invador3.png,1,80,2,40,right,74,1,741,-0.762712549,0,0,2,1,>19 missed
2,391,0,../static/images/invador3.png,1,80,2,40,left,70,1,851,-0.038854163,0,0,2,1,>19 missed
2,392,0,../static/images/invador3.png,1,80,2,40,left,70,1,672,-1.216769173,0,0,2,1,>19 missed
2,393,0,../static/images/invador2.png,4,20,8,2.5,left,74,-1,929,0.474427238,0,0,2,1,>19 missed
2,394,0,../static/images/invador3.png,1,80,2,40,right,74,1,740,-0.76929308,0,0,2,1,>19 missed
2,395,0,../static/images/invador1.png,2,20,2,10,right,74,1,968,0.731067938,1,0,2,1,>19 missed
2,396,0,../static/images/invador3.png,1,80,2,40,left,70,1,773,-0.552135564,0,0,2,1,>19 missed
2,397,0,../static/images/invador4.png,3,80,8,10,left,74,-1,970,0.744229,0,0,2,1,>19 missed
2,398,0,../static/images/invador3.png,1,80,2,40,right,74,1,1112,1.67866437,2,0,2,1,>19 missed
2,399,0,../static/images/invador3.png,1,80,2,40,left,70,1,840,-0.111240002,0,0,2,1,>19 missed
2,400,0,../static/images/invador2.png,4,20,8,2.5,left,74,-1,988,0.862678554,0,0,2,1,>19 missed
2,401,0,../static/images/invador3.png,1,80,2,40,right,74,1,844,-0.084917879,1,0,2,1,>19 missed
2,402,0,../static/images/invador3.png,1,80,2,40,left,70,1,928,0.467846707,0,0,2,1,>19 missed
2,403,0,../static/images/invador1.png,2,20,2,10,left,74,-1,865,0.053273268,2,0,2,1,>19 missed
2,404,0,../static/images/invador4.png,3,80,8,10,left,74,-1,835,-0.144142656,0,0,2,1,>19 missed
2,405,0,../static/images/invador3.png,1,80,2,40,right,74,1,758,-0.650843526,2,0,2,1,>19 missed
2,406,0,../static/images/invador3.png,1,80,2,40,left,70,1,847,-0.065176286,0,0,2,1,>19 missed
2,407,0,../static/images/invador3.png,1,80,2,40,right,74,1,754,-0.677165649,0,0,2,1,>19 missed
2,408,0,../static/images/invador1.png,2,20,2,10,left,70,1,725,-0.868001042,0,0,2,1,>19 missed
2,409,0,../static/images/invador3.png,1,80,2,40,right,74,1,670,-1.229930235,0,0,2,1,>19 missed
2,410,0,../static/images/invador4.png,3,80,8,10,left,70,NaN,NaN,NaN,0,1,2,1,>19 missed
2,411,0,../static/images/invador2.png,4,20,8,2.5,right,74,NaN,NaN,NaN,2,1,2,1,>19 missed
2,412,0,../static/images/invador3.png,1,80,2,40,left,70,1,934,0.507329891,2,0,2,1,>19 missed
2,413,0,../static/images/invador3.png,1,80,2,40,right,74,1,1281,2.790774072,0,0,2,1,>19 missed
2,414,0,../static/images/invador2.png,4,20,8,2.5,left,74,-1,1047,1.25092987,0,0,2,1,>19 missed
2,415,0,../static/images/invador4.png,3,80,8,10,right,70,-1,707,-0.986450596,0,0,2,1,>19 missed
2,416,0,../static/images/invador1.png,2,20,2,10,right,70,-1,900,0.283591845,0,0,2,1,>19 missed
2,417,0,../static/images/invador3.png,1,80,2,40,left,70,1,794,-0.413944418,0,0,2,1,>19 missed
2,418,0,../static/images/invador3.png,1,80,2,40,left,70,1,776,-0.532393972,0,0,2,1,>19 missed
2,419,0,../static/images/invador3.png,1,80,2,40,left,70,1,783,-0.486330256,0,0,2,1,>19 missed
2,420,0,../static/images/invador3.png,1,80,2,40,left,70,NaN,NaN,NaN,0,1,2,1,>19 missed
2,421,0,../static/images/invador3.png,1,80,2,40,right,74,1,757,-0.657424057,0,0,2,1,>19 missed
2,422,0,../static/images/invador3.png,1,80,2,40,right,74,1,864,0.046692737,0,0,2,1,>19 missed
2,423,0,../static/images/invador1.png,2,20,2,10,right,74,1,1082,1.481248447,0,0,2,1,>19 missed
2,424,0,../static/images/invador3.png,1,80,2,40,right,74,1,890,0.217786537,0,0,2,1,>19 missed
2,425,0,../static/images/invador4.png,3,80,8,10,left,74,-1,948,0.599457322,0,0,2,1,>19 missed
2,426,0,../static/images/invador2.png,4,20,8,2.5,left,74,-1,874,0.112498045,0,0,2,1,>19 missed
2,427,0,../static/images/invador3.png,1,80,2,40,left,70,NaN,NaN,NaN,0,1,2,1,>19 missed
2,428,0,../static/images/invador1.png,2,20,2,10,right,74,1,1203,2.277492672,0,0,2,1,>19 missed
2,429,0,../static/images/invador3.png,1,80,2,40,left,70,1,987,0.856098023,1,0,2,1,>19 missed
2,430,0,../static/images/invador2.png,4,20,8,2.5,left,74,-1,951,0.619198915,2,0,2,1,>19 missed
2,431,0,../static/images/invador4.png,3,80,8,10,right,70,-1,710,-0.966709003,0,0,2,1,>19 missed
2,432,0,../static/images/invador3.png,1,80,2,40,left,70,1,1143,1.882660825,0,0,2,1,>19 missed
2,433,0,../static/images/invador3.png,1,80,2,40,right,74,1,812,-0.295494864,0,0,2,1,>19 missed
2,434,0,../static/images/invador2.png,4,20,8,2.5,right,70,-1,1005,0.974547577,1,0,2,1,>19 missed
2,435,0,../static/images/invador3.png,1,80,2,40,right,74,1,838,-0.124401064,0,0,2,1,>19 missed
2,436,0,../static/images/invador1.png,2,20,2,10,right,70,-1,1123,1.751050209,2,0,2,1,>19 missed
3,0,0,../static/images/invador4.png,1,80,2,40,left,70,1,833,0.007254512,0,0,1,0,do not exclude
3,1,0,../static/images/invador4.png,1,80,2,40,right,74,1,802,-0.225928488,0,0,1,0,do not exclude
3,2,0,../static/images/invador4.png,1,80,2,40,right,74,1,804,-0.210884423,0,0,1,0,do not exclude
3,3,0,../static/images/invador3.png,3,80,8,10,right,74,1,677,-1.166182521,1,0,1,0,do not exclude
3,4,0,../static/images/invador1.png,2,20,2,10,left,70,1,910,0.586450996,0,0,1,0,do not exclude
3,5,0,../static/images/invador2.png,4,20,8,2.5,right,74,1,950,0.887332287,0,0,1,0,do not exclude
3,6,0,../static/images/invador4.png,1,80,2,40,left,74,-1,661,-1.286535037,2,0,1,0,do not exclude
3,7,0,../static/images/invador4.png,1,80,2,40,right,74,1,815,-0.128142068,0,0,1,0,do not exclude
3,8,0,../static/images/invador1.png,2,20,2,10,right,74,1,983,1.135559352,0,0,1,0,do not exclude
3,9,0,../static/images/invador4.png,1,80,2,40,right,74,1,989,1.180691545,0,0,1,0,do not exclude
3,10,0,../static/images/invador3.png,3,80,8,10,right,70,-1,1261,3.22668432,0,0,1,0,do not exclude
3,11,0,../static/images/invador4.png,1,80,2,40,left,70,1,1082,1.880240545,0,0,1,0,do not exclude
3,12,0,../static/images/invador4.png,1,80,2,40,right,74,1,823,-0.06796581,0,0,1,0,do not exclude
3,13,0,../static/images/invador2.png,4,20,8,2.5,left,70,1,859,0.202827351,0,0,1,0,do not exclude
3,14,0,../static/images/invador2.png,4,20,8,2.5,right,70,-1,1312,3.610307966,0,0,1,0,do not exclude
3,15,0,../static/images/invador4.png,1,80,2,40,right,74,1,841,0.06743077,0,0,1,0,do not exclude
3,16,0,../static/images/invador3.png,3,80,8,10,left,74,-1,1016,1.383786416,0,0,1,0,do not exclude
3,17,0,../static/images/invador1.png,2,20,2,10,right,74,1,918,0.646627255,0,0,1,0,do not exclude
3,18,0,../static/images/invador4.png,1,80,2,40,left,70,1,837,0.037342641,0,0,1,0,do not exclude
3,19,0,../static/images/invador4.png,1,80,2,40,right,74,1,847,0.112562964,0,0,1,0,do not exclude
3,20,0,../static/images/invador4.png,1,80,2,40,right,74,1,769,-0.474155552,0,0,1,0,do not exclude
3,21,0,../static/images/invador3.png,3,80,8,10,right,74,1,703,-0.970609682,1,0,1,0,do not exclude
3,22,0,../static/images/invador1.png,2,20,2,10,right,74,1,1052,1.654579578,0,0,1,0,do not exclude
3,23,0,../static/images/invador2.png,4,20,8,2.5,left,74,-1,892,0.451054416,0,0,1,0,do not exclude
3,24,0,../static/images/invador4.png,1,80,2,40,left,70,1,645,-1.406887553,1,0,1,0,do not exclude
3,25,0,../static/images/invador4.png,1,80,2,40,right,74,1,813,-0.143186133,0,0,1,0,do not exclude
3,26,0,../static/images/invador4.png,1,80,2,40,right,74,1,702,-0.978131714,0,0,1,0,do not exclude
3,27,0,../static/images/invador4.png,1,80,2,40,left,70,1,735,-0.729904649,0,0,1,0,do not exclude
3,28,0,../static/images/invador4.png,1,80,2,40,left,70,1,746,-0.647162294,0,0,1,0,do not exclude
3,29,0,../static/images/invador2.png,4,20,8,2.5,right,74,1,507,-2.444928005,1,0,1,0,do not exclude
3,30,0,../static/images/invador4.png,1,80,2,40,right,74,1,858,0.195305319,0,0,1,0,do not exclude
3,31,0,../static/images/invador1.png,2,20,2,10,right,74,1,868,0.270525641,0,0,1,0,do not exclude
3,32,0,../static/images/invador4.png,1,80,2,40,left,70,1,541,-2.189178908,0,0,1,0,do not exclude
3,33,0,../static/images/invador3.png,3,80,8,10,left,74,-1,1080,1.865196481,0,0,1,0,do not exclude
3,34,0,../static/images/invador4.png,1,80,2,40,left,70,1,768,-0.481677585,0,0,1,0,do not exclude
3,35,0,../static/images/invador4.png,1,80,2,40,right,74,1,784,-0.361325069,0,0,1,0,do not exclude
3,36,0,../static/images/invador4.png,1,80,2,40,left,70,1,904,0.541318803,0,0,1,0,do not exclude
3,37,0,../static/images/invador2.png,4,20,8,2.5,left,74,-1,975,1.075383093,0,0,1,0,do not exclude
3,38,0,../static/images/invador3.png,3,80,8,10,right,70,-1,1101,2.023159158,0,0,1,0,do not exclude
3,39,0,../static/images/invador4.png,1,80,2,40,left,70,1,588,-1.835643392,1,0,1,0,do not exclude
3,40,0,../static/images/invador1.png,2,20,2,10,right,74,1,955,0.924942448,0,0,1,0,do not exclude
3,41,0,../static/images/invador4.png,1,80,2,40,right,74,1,814,-0.135664101,0,0,1,0,do not exclude
3,42,0,../static/images/invador1.png,2,20,2,10,right,70,-1,528,-2.286965327,2,0,1,0,do not exclude
3,43,0,../static/images/invador4.png,1,80,2,40,right,74,1,796,-0.271060681,0,0,1,0,do not exclude
3,44,0,../static/images/invador2.png,4,20,8,2.5,left,74,-1,981,1.120515287,0,0,1,0,do not exclude
3,45,0,../static/images/invador4.png,1,80,2,40,right,74,1,784,-0.361325069,0,0,1,0,do not exclude
3,46,0,../static/images/invador4.png,1,80,2,40,right,74,1,814,-0.135664101,0,0,1,0,do not exclude
3,47,0,../static/images/invador4.png,1,80,2,40,left,70,1,799,-0.248494585,0,0,1,0,do not exclude
3,48,0,../static/images/invador3.png,3,80,8,10,left,74,-1,996,1.233345771,0,0,1,0,do not exclude
3,49,0,../static/images/invador4.png,1,80,2,40,left,70,1,787,-0.338758972,0,0,1,0,do not exclude
3,50,0,../static/images/invador4.png,1,80,2,40,right,74,1,843,0.082474835,0,0,1,0,do not exclude
3,51,0,../static/images/invador4.png,1,80,2,40,left,70,1,811,-0.158230197,0,0,1,0,do not exclude
3,52,0,../static/images/invador2.png,4,20,8,2.5,left,74,-1,1001,1.270955932,0,0,1,0,do not exclude
3,53,0,../static/images/invador3.png,3,80,8,10,right,74,1,676,-1.173704553,1,0,1,0,do not exclude
3,54,0,../static/images/invador4.png,1,80,2,40,right,74,1,847,0.112562964,0,0,1,0,do not exclude
3,55,0,../static/images/invador1.png,2,20,2,10,left,74,-1,955,0.924942448,0,0,1,0,do not exclude
3,56,0,../static/images/invador4.png,1,80,2,40,right,74,1,885,0.39840019,0,0,1,0,do not exclude
3,57,0,../static/images/invador2.png,4,20,8,2.5,right,70,-1,887,0.413444254,0,0,1,0,do not exclude
3,58,0,../static/images/invador4.png,1,80,2,40,left,74,-1,630,-1.519718037,2,0,1,0,do not exclude
3,59,0,../static/images/invador4.png,1,80,2,40,right,74,1,775,-0.429023359,1,0,1,0,do not exclude
3,60,0,../static/images/invador1.png,2,20,2,10,left,74,-1,631,-1.512196005,2,0,1,0,do not exclude
3,61,0,../static/images/invador3.png,3,80,8,10,right,70,-1,1038,1.549271126,0,0,1,0,do not exclude
3,62,0,../static/images/invador4.png,1,80,2,40,left,70,1,887,0.413444254,0,0,1,0,do not exclude
3,63,0,../static/images/invador4.png,1,80,2,40,right,74,1,813,-0.143186133,0,0,1,0,do not exclude
3,64,0,../static/images/invador4.png,1,80,2,40,right,74,1,647,-1.391843488,1,0,1,0,do not exclude
3,65,0,../static/images/invador3.png,3,80,8,10,right,70,-1,904,0.541318803,0,0,1,0,do not exclude
3,66,0,../static/images/invador4.png,1,80,2,40,left,70,1,818,-0.105575972,0,0,1,0,do not exclude
3,67,0,../static/images/invador1.png,2,20,2,10,left,74,-1,850,0.135129061,2,0,1,0,do not exclude
3,68,0,../static/images/invador4.png,1,80,2,40,right,74,1,854,0.16521719,0,0,1,0,do not exclude
3,69,0,../static/images/invador2.png,4,20,8,2.5,left,70,1,631,-1.512196005,1,0,1,0,do not exclude
3,70,0,../static/images/invador3.png,3,80,8,10,left,74,-1,898,0.496186609,0,0,1,0,do not exclude
3,71,0,../static/images/invador4.png,1,80,2,40,right,74,1,799,-0.248494585,0,0,1,0,do not exclude
3,72,0,../static/images/invador4.png,1,80,2,40,left,70,1,886,0.405922222,0,0,1,0,do not exclude
3,73,0,../static/images/invador4.png,1,80,2,40,left,70,1,928,0.721847577,0,0,1,0,do not exclude
3,74,0,../static/images/invador4.png,1,80,2,40,right,74,1,999,1.255911868,0,0,1,0,do not exclude
3,75,0,../static/images/invador1.png,2,20,2,10,left,70,1,921,0.669193351,0,0,1,0,do not exclude
3,76,0,../static/images/invador2.png,4,20,8,2.5,right,70,-1,1169,2.534657352,0,0,1,0,do not exclude
3,77,0,../static/images/invador3.png,3,80,8,10,right,70,-1,993,1.210779674,0,0,1,0,do not exclude
3,78,0,../static/images/invador4.png,1,80,2,40,right,70,-1,532,-2.256877198,2,0,1,0,do not exclude
3,79,0,../static/images/invador4.png,1,80,2,40,left,70,1,954,0.917420416,0,0,1,0,do not exclude
3,80,0,../static/images/invador1.png,2,20,2,10,right,74,1,1145,2.354128578,0,0,1,0,do not exclude
3,81,0,../static/images/invador4.png,1,80,2,40,left,70,1,833,0.007254512,0,0,1,0,do not exclude
3,82,0,../static/images/invador4.png,1,80,2,40,right,74,1,779,-0.39893523,0,0,1,0,do not exclude
3,83,0,../static/images/invador2.png,4,20,8,2.5,left,74,-1,1082,1.880240545,0,0,1,0,do not exclude
3,84,0,../static/images/invador2.png,4,20,8,2.5,right,70,-1,985,1.150603416,0,0,1,0,do not exclude
3,85,0,../static/images/invador3.png,3,80,8,10,right,70,-1,860,0.210349383,0,0,1,0,do not exclude
3,86,0,../static/images/invador4.png,1,80,2,40,left,70,1,801,-0.23345052,0,0,1,0,do not exclude
3,87,0,../static/images/invador4.png,1,80,2,40,left,70,1,872,0.30061377,0,0,1,0,do not exclude
3,88,0,../static/images/invador1.png,2,20,2,10,right,74,1,880,0.360790029,0,0,1,0,do not exclude
3,89,0,../static/images/invador4.png,1,80,2,40,right,74,1,956,0.93246448,0,0,1,0,do not exclude
3,90,0,../static/images/invador4.png,1,80,2,40,right,74,1,1117,2.143511675,0,0,1,0,do not exclude
3,91,0,../static/images/invador4.png,1,80,2,40,left,74,-1,970,1.037772932,2,0,1,0,do not exclude
3,92,0,../static/images/invador4.png,1,80,2,40,right,74,1,936,0.782023835,1,0,1,0,do not exclude
3,93,0,../static/images/invador1.png,2,20,2,10,right,74,1,888,0.420966287,0,0,1,0,do not exclude
3,94,0,../static/images/invador4.png,1,80,2,40,left,70,1,838,0.044864674,0,0,1,0,do not exclude
3,95,0,../static/images/invador3.png,3,80,8,10,left,74,-1,902,0.526274738,0,0,1,0,do not exclude
3,96,0,../static/images/invador2.png,4,20,8,2.5,left,70,NaN,NaN,NaN,0,1,1,0,do not exclude
3,97,0,../static/images/invador4.png,1,80,2,40,right,74,1,1058,1.699711771,0,0,1,0,do not exclude
3,98,0,../static/images/invador1.png,2,20,2,10,left,70,1,1012,1.353698287,0,0,1,0,do not exclude
3,99,0,../static/images/invador2.png,4,20,8,2.5,left,74,-1,844,0.089996867,0,0,1,0,do not exclude
3,100,0,../static/images/invador4.png,1,80,2,40,left,70,1,988,1.173169513,0,0,1,0,do not exclude
3,101,0,../static/images/invador4.png,1,80,2,40,right,74,1,1013,1.361220319,0,0,1,0,do not exclude
3,102,0,../static/images/invador3.png,3,80,8,10,left,74,-1,886,0.405922222,0,0,1,0,do not exclude
3,103,0,../static/images/invador4.png,1,80,2,40,left,70,1,788,-0.331236939,0,0,1,0,do not exclude
3,104,0,../static/images/invador4.png,1,80,2,40,left,70,1,819,-0.098053939,0,0,1,0,do not exclude
3,105,0,../static/images/invador1.png,2,20,2,10,right,74,1,938,0.7970679,0,0,1,0,do not exclude
3,106,0,../static/images/invador4.png,1,80,2,40,right,74,1,700,-0.993175778,1,0,1,0,do not exclude
3,107,0,../static/images/invador3.png,3,80,8,10,right,70,-1,845,0.097518899,0,0,1,0,do not exclude
3,108,0,../static/images/invador4.png,1,80,2,40,right,74,1,819,-0.098053939,0,0,1,0,do not exclude
3,109,0,../static/images/invador2.png,4,20,8,2.5,right,70,-1,1081,1.872718513,0,0,1,0,do not exclude
3,110,0,../static/images/invador4.png,1,80,2,40,right,74,1,936,0.782023835,0,0,1,0,do not exclude
3,111,0,../static/images/invador4.png,1,80,2,40,left,70,1,847,0.112562964,0,0,1,0,do not exclude
3,112,0,../static/images/invador2.png,4,20,8,2.5,right,70,-1,928,0.721847577,0,0,1,0,do not exclude
3,113,0,../static/images/invador4.png,1,80,2,40,left,70,1,656,-1.324145198,1,0,1,0,do not exclude
3,114,0,../static/images/invador4.png,1,80,2,40,left,70,1,989,1.180691545,0,0,1,0,do not exclude
3,115,0,../static/images/invador3.png,3,80,8,10,right,70,-1,825,-0.052921746,0,0,1,0,do not exclude
3,116,0,../static/images/invador1.png,2,20,2,10,left,70,1,906,0.556362867,0,0,1,0,do not exclude
3,117,0,../static/images/invador4.png,1,80,2,40,right,74,1,820,-0.090531907,0,0,1,0,do not exclude
3,118,0,../static/images/invador4.png,1,80,2,40,left,70,1,826,-0.045399714,0,0,1,0,do not exclude
3,119,0,../static/images/invador4.png,1,80,2,40,right,70,-1,731,-0.759992778,2,0,1,0,do not exclude
3,120,0,../static/images/invador4.png,1,80,2,40,right,70,-1,767,-0.489199617,2,0,1,0,do not exclude
3,121,0,../static/images/invador4.png,1,80,2,40,right,74,1,751,-0.609552133,1,0,1,0,do not exclude
3,122,0,../static/images/invador1.png,2,20,2,10,left,70,1,1054,1.669623642,0,0,1,0,do not exclude
3,123,0,../static/images/invador2.png,4,20,8,2.5,left,74,-1,1049,1.632013481,0,0,1,0,do not exclude
3,124,0,../static/images/invador4.png,1,80,2,40,left,70,1,938,0.7970679,0,0,1,0,do not exclude
3,125,0,../static/images/invador3.png,3,80,8,10,right,70,-1,892,0.451054416,0,0,1,0,do not exclude
3,126,0,../static/images/invador2.png,4,20,8,2.5,left,74,-1,1003,1.285999997,0,0,1,0,do not exclude
3,127,0,../static/images/invador3.png,3,80,8,10,right,70,-1,899,0.503708642,0,0,1,0,do not exclude
3,128,0,../static/images/invador1.png,2,20,2,10,left,74,-1,858,0.195305319,2,0,1,0,do not exclude
3,129,0,../static/images/invador4.png,1,80,2,40,left,70,1,847,0.112562964,0,0,1,0,do not exclude
3,130,0,../static/images/invador4.png,1,80,2,40,right,74,1,862,0.225393448,0,0,1,0,do not exclude
3,131,0,../static/images/invador4.png,1,80,2,40,left,70,1,807,-0.188318327,1,0,1,0,do not exclude
3,132,0,../static/images/invador4.png,1,80,2,40,left,70,1,556,-2.076348424,1,0,1,0,do not exclude
3,133,0,../static/images/invador4.png,1,80,2,40,left,70,1,997,1.240867803,0,0,1,0,do not exclude
3,134,0,../static/images/invador3.png,3,80,8,10,right,70,-1,868,0.270525641,0,0,1,0,do not exclude
3,135,0,../static/images/invador4.png,1,80,2,40,left,70,1,857,0.187783287,0,0,1,0,do not exclude
3,136,0,../static/images/invador4.png,1,80,2,40,right,74,1,919,0.654149287,0,0,1,0,do not exclude
3,137,0,../static/images/invador1.png,2,20,2,10,right,74,1,947,0.86476619,0,0,1,0,do not exclude
3,138,0,../static/images/invador4.png,1,80,2,40,left,70,1,974,1.067861061,0,0,1,0,do not exclude
3,139,0,../static/images/invador2.png,4,20,8,2.5,left,70,1,809,-0.173274262,1,0,1,0,do not exclude
3,140,0,../static/images/invador4.png,1,80,2,40,left,70,1,686,-1.09848423,1,0,1,0,do not exclude
3,141,0,../static/images/invador3.png,3,80,8,10,left,74,-1,994,1.218301706,0,0,1,0,do not exclude
3,142,0,../static/images/invador4.png,1,80,2,40,left,74,-1,681,-1.136094391,2,0,1,0,do not exclude
3,143,0,../static/images/invador1.png,2,20,2,10,left,70,1,908,0.571406932,0,0,1,0,do not exclude
3,144,0,../static/images/invador2.png,4,20,8,2.5,right,70,-1,30,-6.032937394,0,0,1,0,do not exclude
3,145,0,../static/images/invador4.png,1,80,2,40,left,74,-1,1297,3.497477482,0,0,1,0,do not exclude
3,146,0,../static/images/invador4.png,1,80,2,40,left,70,1,1192,2.707664094,0,0,1,0,do not exclude
3,147,0,../static/images/invador1.png,2,20,2,10,left,70,1,977,1.090427158,0,0,1,0,do not exclude
3,148,0,../static/images/invador2.png,4,20,8,2.5,left,74,-1,805,-0.203362391,2,0,1,0,do not exclude
3,149,0,../static/images/invador4.png,1,80,2,40,left,70,1,874,0.315657835,0,0,1,0,do not exclude
3,150,0,../static/images/invador3.png,3,80,8,10,left,74,-1,995,1.225823739,0,0,1,0,do not exclude
