subj,trial_index_actual,block,stimulus,stim_rank,reward_percent,delay_s,profitability,stim_left_right,key_press,approach_avoid,rt,rt_z,force_trial,missed,order_condition,exclude,exclude_reason
1,0,0,../static/images/invador3.png,3,80,8,10,right,70,-1,1299,2.419769582,2,0,1,1,poor behaviour
1,1,0,../static/images/invador1.png,1,80,2,40,left,70,1,1256,2.138069952,0,0,1,1,poor behaviour
1,2,0,../static/images/invador1.png,1,80,2,40,right,74,1,923,-0.043464388,0,0,1,1,poor behaviour
1,3,0,../static/images/invador1.png,1,80,2,40,right,74,1,1005,0.493730254,0,0,1,1,poor behaviour
1,4,0,../static/images/invador1.png,1,80,2,40,right,74,1,914,-0.102424776,1,0,1,1,poor behaviour
1,5,0,../static/images/invador2.png,2,20,2,10,left,74,-1,969,0.257888704,2,0,1,1,poor behaviour
1,6,0,../static/images/invador4.png,4,20,8,2.5,left,70,1,1188,1.692591468,0,0,1,1,poor behaviour
1,7,0,../static/images/invador1.png,1,80,2,40,left,70,1,681,-1.628843699,1,0,1,1,poor behaviour
1,8,0,../static/images/invador2.png,2,20,2,10,right,74,1,1073,0.939208738,0,0,1,1,poor behaviour
1,9,0,../static/images/invador1.png,1,80,2,40,left,70,1,781,-0.973728281,0,0,1,1,poor behaviour
1,10,0,../static/images/invador4.png,4,20,8,2.5,left,70,1,879,-0.331715172,0,0,1,1,poor behaviour
1,11,0,../static/images/invador1.png,1,80,2,40,right,74,1,1006,0.500281408,0,0,1,1,poor behaviour
1,12,0,../static/images/invador1.png,1,80,2,40,left,70,1,979,0.323400246,0,0,1,1,poor behaviour
1,13,0,../static/images/invador3.png,3,80,8,10,left,70,NaN,NaN,NaN,1,1,1,1,poor behaviour
1,14,0,../static/images/invador1.png,1,80,2,40,right,-1,NaN,NaN,NaN,1,1,1,1,poor behaviour
1,15,0,../static/images/invador1.png,1,80,2,40,left,70,NaN,NaN,NaN,0,1,1,1,poor behaviour
1,16,0,../static/images/invador4.png,4,20,8,2.5,right,74,1,874,-0.364470943,0,0,1,1,poor behaviour
1,17,0,../static/images/invador2.png,2,20,2,10,left,70,1,817,-0.737886731,0,0,1,1,poor behaviour
1,18,0,../static/images/invador1.png,1,80,2,40,right,74,1,827,-0.672375189,0,0,1,1,poor behaviour
1,19,0,../static/images/invador3.png,3,80,8,10,left,70,1,816,-0.744437885,1,0,1,1,poor behaviour
1,20,0,../static/images/invador1.png,1,80,2,40,right,74,1,810,-0.78374481,0,0,1,1,poor behaviour
1,21,0,../static/images/invador1.png,1,80,2,40,left,74,-1,1016,0.56579295,2,0,1,1,poor behaviour
1,22,0,../static/images/invador4.png,4,20,8,2.5,right,74,1,1152,1.456749918,1,0,1,1,poor behaviour
1,23,0,../static/images/invador1.png,1,80,2,40,left,70,1,758,-1.124404827,0,0,1,1,poor behaviour
1,24,0,../static/images/invador1.png,1,80,2,40,left,70,1,741,-1.235774448,1,0,1,1,poor behaviour
1,25,0,../static/images/invador2.png,2,20,2,10,left,70,1,829,-0.659272881,0,0,1,1,poor behaviour
1,26,0,../static/images/invador3.png,3,80,8,10,right,74,1,1048,0.775429884,0,0,1,1,poor behaviour
1,27,0,../static/images/invador1.png,1,80,2,40,right,74,1,941,0.074456387,0,0,1,1,poor behaviour
1,28,0,../static/images/invador4.png,4,20,8,2.5,right,74,1,864,-0.429982485,0,0,1,1,poor behaviour
1,29,0,../static/images/invador1.png,1,80,2,40,left,70,1,776,-1.006484052,0,0,1,1,poor behaviour
1,30,0,../static/images/invador3.png,3,80,8,10,right,74,1,851,-0.515147489,0,0,1,1,poor behaviour
1,31,0,../static/images/invador2.png,2,20,2,10,right,74,1,893,-0.239999014,0,0,1,1,poor behaviour
1,32,0,../static/images/invador1.png,1,80,2,40,left,70,1,1018,0.578895258,0,0,1,1,poor behaviour
1,33,0,../static/images/invador1.png,1,80,2,40,left,70,1,912,-0.115527084,0,0,1,1,poor behaviour
1,34,0,../static/images/invador1.png,1,80,2,40,left,70,1,933,0.022047153,0,0,1,1,poor behaviour
1,35,0,../static/images/invador2.png,2,20,2,10,left,70,1,924,-0.036913234,0,0,1,1,poor behaviour
1,36,0,../static/images/invador1.png,1,80,2,40,right,74,1,991,0.402014096,0,0,1,1,poor behaviour
1,37,0,../static/images/invador4.png,4,20,8,2.5,left,70,1,804,-0.823051735,0,0,1,1,poor behaviour
1,38,0,../static/images/invador3.png,3,80,8,10,left,70,1,857,-0.475840564,0,0,1,1,poor behaviour
1,39,0,../static/images/invador1.png,1,80,2,40,right,74,1,912,-0.115527084,0,0,1,1,poor behaviour
1,40,0,../static/images/invador1.png,1,80,2,40,left,70,1,1010,0.526486025,0,0,1,1,poor behaviour
1,41,0,../static/images/invador1.png,1,80,2,40,right,74,1,895,-0.226896705,0,0,1,1,poor behaviour
1,42,0,../static/images/invador1.png,1,80,2,40,right,74,1,921,-0.056566697,0,0,1,1,poor behaviour
1,43,0,../static/images/invador1.png,1,80,2,40,right,74,1,836,-0.613414802,1,0,1,1,poor behaviour
1,44,0,../static/images/invador1.png,1,80,2,40,left,70,1,812,-0.770642502,0,0,1,1,poor behaviour
1,45,0,../static/images/invador1.png,1,80,2,40,right,74,1,879,-0.331715172,0,0,1,1,poor behaviour
1,46,0,../static/images/invador2.png,2,20,2,10,left,70,1,1439,3.336931166,0,0,1,1,poor behaviour
1,47,0,../static/images/invador3.png,3,80,8,10,right,74,NaN,NaN,NaN,0,1,1,1,poor behaviour
1,48,0,../static/images/invador4.png,4,20,8,2.5,left,70,NaN,NaN,NaN,0,1,1,1,poor behaviour
1,49,0,../static/images/invador1.png,1,80,2,40,right,74,NaN,NaN,NaN,0,1,1,1,poor behaviour
1,50,0,../static/images/invador1.png,1,80,2,40,left,70,1,724,-1.347144069,1,0,1,1,poor behaviour
1,51,0,../static/images/invador1.png,1,80,2,40,left,74,-1,1382,2.963515378,2,0,1,1,poor behaviour
1,52,0,../static/images/invador2.png,2,20,2,10,left,70,1,1024,0.618202183,0,0,1,1,poor behaviour
1,53,0,../static/images/invador1.png,1,80,2,40,right,74,1,817,-0.737886731,0,0,1,1,poor behaviour
1,54,0,../static/images/invador3.png,3,80,8,10,left,74,-1,793,-0.895114431,2,0,1,1,poor behaviour
1,55,0,../static/images/invador4.png,4,20,8,2.5,right,70,-1,912,-0.115527084,2,0,1,1,poor behaviour
1,56,0,../static/images/invador1.png,1,80,2,40,left,70,1,914,-0.102424776,0,0,1,1,poor behaviour
1,57,0,../static/images/invador1.png,1,80,2,40,left,70,1,855,-0.488942872,0,0,1,1,poor behaviour
1,58,0,../static/images/invador4.png,4,20,8,2.5,left,70,1,771,-1.039239823,0,0,1,1,poor behaviour
1,59,0,../static/images/invador1.png,1,80,2,40,left,70,1,763,-1.091649056,1,0,1,1,poor behaviour
1,60,0,../static/images/invador2.png,2,20,2,10,left,70,1,683,-1.61574139,1,0,1,1,poor behaviour
1,61,0,../static/images/invador1.png,1,80,2,40,left,70,1,779,-0.98683059,0,0,1,1,poor behaviour
1,62,0,../static/images/invador3.png,3,80,8,10,right,74,1,858,-0.46928941,1,0,1,1,poor behaviour
1,63,0,../static/images/invador3.png,3,80,8,10,left,70,1,864,-0.429982485,0,0,1,1,poor behaviour
1,64,0,../static/images/invador1.png,1,80,2,40,left,70,1,770,-1.045790977,0,0,1,1,poor behaviour
1,65,0,../static/images/invador1.png,1,80,2,40,left,74,-1,1456,3.448300787,0,0,1,1,poor behaviour
1,66,0,../static/images/invador1.png,1,80,2,40,left,70,1,1096,1.089885284,0,0,1,1,poor behaviour
1,67,0,../static/images/invador2.png,2,20,2,10,left,70,1,721,-1.366797532,0,0,1,1,poor behaviour
1,68,0,../static/images/invador1.png,1,80,2,40,left,74,-1,734,-1.281632527,2,0,1,1,poor behaviour
1,69,0,../static/images/invador4.png,4,20,8,2.5,left,-1,NaN,NaN,NaN,2,1,1,1,poor behaviour
1,70,0,../static/images/invador4.png,4,20,8,2.5,left,70,1,859,-0.462738255,0,0,1,1,poor behaviour
1,71,0,../static/images/invador1.png,1,80,2,40,right,70,-1,1086,1.024373742,2,0,1,1,poor behaviour
1,72,0,../static/images/invador2.png,2,20,2,10,left,70,1,1094,1.076782976,0,0,1,1,poor behaviour
1,73,0,../static/images/invador3.png,3,80,8,10,left,70,1,909,-0.135180547,0,0,1,1,poor behaviour
1,74,0,../static/images/invador1.png,1,80,2,40,left,70,1,769,-1.052342131,0,0,1,1,poor behaviour
1,75,0,../static/images/invador1.png,1,80,2,40,left,70,1,839,-0.593761339,0,0,1,1,poor behaviour
1,76,0,../static/images/invador1.png,1,80,2,40,right,74,1,892,-0.246550168,0,0,1,1,poor behaviour
1,77,0,../static/images/invador2.png,2,20,2,10,right,74,1,937,0.04825177,0,0,1,1,poor behaviour
1,78,0,../static/images/invador1.png,1,80,2,40,left,70,NaN,NaN,NaN,2,1,1,1,poor behaviour
1,79,0,../static/images/invador1.png,1,80,2,40,left,70,1,964,0.225132933,1,0,1,1,poor behaviour
1,80,0,../static/images/invador1.png,1,80,2,40,left,74,-1,903,-0.174487472,2,0,1,1,poor behaviour
1,81,0,../static/images/invador3.png,3,80,8,10,right,70,-1,1117,1.227459522,2,0,1,1,poor behaviour
1,82,0,../static/images/invador4.png,4,20,8,2.5,left,74,-1,873,-0.371022097,2,0,1,1,poor behaviour
1,83,0,../static/images/invador1.png,1,80,2,40,right,74,1,984,0.356156016,0,0,1,1,poor behaviour
1,84,0,../static/images/invador3.png,3,80,8,10,left,70,1,932,0.015495999,0,0,1,1,poor behaviour
1,85,0,../static/images/invador1.png,1,80,2,40,right,74,1,971,0.270991012,0,0,1,1,poor behaviour
1,86,0,../static/images/invador1.png,1,80,2,40,left,70,1,1022,0.605099875,0,0,1,1,poor behaviour
1,87,0,../static/images/invador2.png,2,20,2,10,left,70,1,917,-0.082771313,0,0,1,1,poor behaviour
1,88,0,../static/images/invador4.png,4,20,8,2.5,left,70,1,831,-0.646170572,0,0,1,1,poor behaviour
1,89,0,../static/images/invador1.png,1,80,2,40,left,70,1,772,-1.032688669,0,0,1,1,poor behaviour
1,90,0,../static/images/invador1.png,1,80,2,40,right,74,1,1031,0.664060263,0,0,1,1,poor behaviour
1,91,0,../static/images/invador2.png,2,20,2,10,left,70,1,823,-0.698579806,0,0,1,1,poor behaviour
1,92,0,../static/images/invador1.png,1,80,2,40,right,74,1,1361,2.82594114,0,0,1,1,poor behaviour
1,93,0,../static/images/invador3.png,3,80,8,10,left,70,1,1005,0.493730254,0,0,1,1,poor behaviour
1,94,0,../static/images/invador1.png,1,80,2,40,left,70,1,901,-0.18758978,0,0,1,1,poor behaviour
1,95,0,../static/images/invador4.png,4,20,8,2.5,right,74,1,874,-0.364470943,0,0,1,1,poor behaviour
1,96,0,../static/images/invador1.png,1,80,2,40,left,74,-1,939,0.061354079,2,0,1,1,poor behaviour
1,97,0,../static/images/invador1.png,1,80,2,40,left,70,1,932,0.015495999,0,0,1,1,poor behaviour
1,98,0,../static/images/invador2.png,2,20,2,10,left,70,1,1121,1.253664138,1,0,1,1,poor behaviour
1,99,0,../static/images/invador1.png,1,80,2,40,right,74,1,1189,1.699142622,0,0,1,1,poor behaviour
1,100,0,../static/images/invador1.png,1,80,2,40,left,70,1,901,-0.18758978,0,0,1,1,poor behaviour
1,101,0,../static/images/invador3.png,3,80,8,10,left,74,-1,1162,1.52226146,2,0,1,1,poor behaviour
1,102,0,../static/images/invador1.png,1,80,2,40,right,74,1,1295,2.393564965,0,0,1,1,poor behaviour
1,103,0,../static/images/invador1.png,1,80,2,40,right,74,1,980,0.3299514,0,0,1,1,poor behaviour
1,104,0,../static/images/invador4.png,4,20,8,2.5,right,74,1,781,-0.973728281,1,0,1,1,poor behaviour
1,105,0,../static/images/invador1.png,1,80,2,40,right,74,1,1036,0.696816034,0,0,1,1,poor behaviour
1,106,1,../static/images/invador2.png,2,20,2,10,left,70,1,1074,0.945759892,0,0,1,1,poor behaviour
1,107,1,../static/images/invador4.png,4,20,8,2.5,left,70,1,791,-0.908216739,1,0,1,1,poor behaviour
1,108,1,../static/images/invador3.png,3,80,8,10,right,74,1,959,0.192377162,0,0,1,1,poor behaviour
1,109,1,../static/images/invador4.png,4,20,8,2.5,left,70,1,806,-0.809949427,0,0,1,1,poor behaviour
1,110,1,../static/images/invador1.png,1,80,2,40,left,70,1,1114,1.207806059,0,0,1,1,poor behaviour
1,111,1,../static/images/invador4.png,4,20,8,2.5,right,74,1,931,0.008944845,0,0,1,1,poor behaviour
1,112,1,../static/images/invador2.png,2,20,2,10,left,70,1,1060,0.854043734,0,0,1,1,poor behaviour
1,113,1,../static/images/invador1.png,1,80,2,40,left,70,1,890,-0.259652476,0,0,1,1,poor behaviour
1,114,1,../static/images/invador4.png,4,20,8,2.5,left,70,1,903,-0.174487472,0,0,1,1,poor behaviour
1,115,1,../static/images/invador3.png,3,80,8,10,right,74,1,948,0.120314466,0,0,1,1,poor behaviour
1,116,1,../static/images/invador4.png,4,20,8,2.5,right,74,1,898,-0.207243243,0,0,1,1,poor behaviour
1,117,1,../static/images/invador4.png,4,20,8,2.5,left,70,1,810,-0.78374481,1,0,1,1,poor behaviour
1,118,1,../static/images/invador4.png,4,20,8,2.5,left,70,1,787,-0.934421356,0,0,1,1,poor behaviour
1,119,1,../static/images/invador4.png,4,20,8,2.5,right,74,1,869,-0.397226714,0,0,1,1,poor behaviour
1,120,1,../static/images/invador4.png,4,20,8,2.5,right,74,1,1057,0.834390271,0,0,1,1,poor behaviour
1,121,1,../static/images/invador4.png,4,20,8,2.5,right,74,1,1000,0.460974483,1,0,1,1,poor behaviour
1,122,1,../static/images/invador2.png,2,20,2,10,right,74,1,1142,1.391238376,0,0,1,1,poor behaviour
1,123,1,../static/images/invador3.png,3,80,8,10,left,70,1,898,-0.207243243,0,0,1,1,poor behaviour
1,124,1,../static/images/invador4.png,4,20,8,2.5,left,70,1,791,-0.908216739,0,0,1,1,poor behaviour
1,125,1,../static/images/invador1.png,1,80,2,40,left,70,1,844,-0.561005568,1,0,1,1,poor behaviour
1,126,1,../static/images/invador4.png,4,20,8,2.5,left,70,1,920,-0.063117851,1,0,1,1,poor behaviour
1,127,1,../static/images/invador3.png,3,80,8,10,left,70,1,979,0.323400246,0,0,1,1,poor behaviour
1,128,1,../static/images/invador4.png,4,20,8,2.5,right,74,1,863,-0.436533639,0,0,1,1,poor behaviour
1,129,1,../static/images/invador4.png,4,20,8,2.5,left,70,1,838,-0.600312493,0,0,1,1,poor behaviour
1,130,1,../static/images/invador2.png,2,20,2,10,left,70,1,921,-0.056566697,0,0,1,1,poor behaviour
1,131,1,../static/images/invador1.png,1,80,2,40,right,74,1,894,-0.233447859,0,0,1,1,poor behaviour
1,132,1,../static/images/invador4.png,4,20,8,2.5,left,70,1,826,-0.678926343,0,0,1,1,poor behaviour
1,133,1,../static/images/invador4.png,4,20,8,2.5,right,74,1,817,-0.737886731,0,0,1,1,poor behaviour
1,134,1,../static/images/invador3.png,3,80,8,10,left,70,1,910,-0.128629393,2,0,1,1,poor behaviour
1,135,1,../static/images/invador4.png,4,20,8,2.5,left,70,1,800,-0.849256352,0,0,1,1,poor behaviour
1,136,1,../static/images/invador4.png,4,20,8,2.5,right,70,-1,987,0.375809479,2,0,1,1,poor behaviour
1,137,1,../static/images/invador2.png,2,20,2,10,right,74,1,1218,1.889126093,0,0,1,1,poor behaviour
1,138,1,../static/images/invador4.png,4,20,8,2.5,right,74,NaN,NaN,NaN,0,1,1,1,poor behaviour
1,139,1,../static/images/invador1.png,1,80,2,40,right,74,1,869,-0.397226714,0,0,1,1,poor behaviour
1,140,1,../static/images/invador2.png,2,20,2,10,right,74,1,1102,1.129192209,0,0,1,1,poor behaviour
1,141,1,../static/images/invador4.png,4,20,8,2.5,right,74,NaN,NaN,NaN,0,1,1,1,poor behaviour
1,142,1,../static/images/invador1.png,1,80,2,40,right,-1,NaN,NaN,NaN,0,1,1,1,poor behaviour
1,143,1,../static/images/invador4.png,4,20,8,2.5,right,74,1,908,-0.141731701,0,0,1,1,poor behaviour
1,144,1,../static/images/invador4.png,4,20,8,2.5,right,74,1,1477,3.585875025,0,0,1,1,poor behaviour
1,145,1,../static/images/invador3.png,3,80,8,10,right,74,1,890,-0.259652476,0,0,1,1,poor behaviour
1,146,1,../static/images/invador4.png,4,20,8,2.5,right,70,-1,1093,1.070231822,2,0,1,1,poor behaviour
1,147,1,../static/images/invador4.png,4,20,8,2.5,right,74,1,840,-0.587210185,0,0,1,1,poor behaviour
1,148,1,../static/images/invador4.png,4,20,8,2.5,right,74,1,1011,0.533037179,0,0,1,1,poor behaviour
1,149,1,../static/images/invador4.png,4,20,8,2.5,left,70,1,859,-0.462738255,0,0,1,1,poor behaviour
1,150,1,../static/images/invador2.png,2,20,2,10,right,74,1,994,0.421667558,0,0,1,1,poor behaviour
1,151,1,../static/images/invador4.png,4,20,8,2.5,right,74,1,855,-0.488942872,0,0,1,1,poor behaviour
1,152,1,../static/images/invador3.png,3,80,8,10,right,70,-1,662,-1.753315628,2,0,1,1,poor behaviour
1,153,1,../static/images/invador1.png,1,80,2,40,left,70,NaN,NaN,NaN,0,1,1,1,poor behaviour
1,154,1,../static/images/invador4.png,4,20,8,2.5,left,70,NaN,NaN,NaN,0,1,1,1,poor behaviour
1,155,1,../static/images/invador4.png,4,20,8,2.5,left,70,1,841,-0.580659031,0,0,1,1,poor behaviour
1,156,1,../static/images/invador4.png,4,20,8,2.5,left,70,1,781,-0.973728281,1,0,1,1,poor behaviour
1,157,1,../static/images/invador4.png,4,20,8,2.5,left,70,1,836,-0.613414802,0,0,1,1,poor behaviour
1,158,1,../static/images/invador3.png,3,80,8,10,left,70,1,804,-0.823051735,0,0,1,1,poor behaviour
1,159,1,../static/images/invador2.png,2,20,2,10,left,70,1,839,-0.593761339,0,0,1,1,poor behaviour
1,160,1,../static/images/invador1.png,1,80,2,40,right,70,-1,1022,0.605099875,2,0,1,1,poor behaviour
1,161,1,../static/images/invador4.png,4,20,8,2.5,right,74,NaN,NaN,NaN,1,1,1,1,poor behaviour
1,162,1,../static/images/invador4.png,4,20,8,2.5,left,70,1,968,0.25133755,0,0,1,1,poor behaviour
1,163,1,../static/images/invador4.png,4,20,8,2.5,left,70,1,816,-0.744437885,0,0,1,1,poor behaviour
1,164,1,../static/images/invador1.png,1,80,2,40,left,70,1,821,-0.711682114,0,0,1,1,poor behaviour
1,165,1,../static/images/invador2.png,2,20,2,10,left,70,1,739,-1.248876757,0,0,1,1,poor behaviour
1,166,1,../static/images/invador4.png,4,20,8,2.5,left,70,1,759,-1.117853673,0,0,1,1,poor behaviour
1,167,1,../static/images/invador3.png,3,80,8,10,left,70,1,860,-0.456187101,0,0,1,1,poor behaviour
1,168,1,../static/images/invador4.png,4,20,8,2.5,left,70,1,1008,0.513383717,0,0,1,1,poor behaviour
1,169,1,../static/images/invador1.png,1,80,2,40,left,70,1,797,-0.868909814,0,0,1,1,poor behaviour
2,0,1,../static/images/invador1.png,4,20,8,2.5,right,74,1,1253,1.132791893,0,0,2,0,do not exclude
2,1,1,../static/images/invador1.png,4,20,8,2.5,right,-1,NaN,NaN,NaN,0,1,2,0,do not exclude
2,2,1,../static/images/invador3.png,2,20,2,10,right,74,1,1185,0.859416502,0,0,2,0,do not exclude
2,3,1,../static/images/invador4.png,1,80,2,40,left,70,1,1148,0.710668127,0,0,2,0,do not exclude
2,4,1,../static/images/invador1.png,4,20,8,2.5,right,70,-1,1156,0.742829938,2,0,2,0,do not exclude
2,5,1,../static/images/invador1.png,4,20,8,2.5,left,70,NaN,NaN,NaN,0,1,2,0,do not exclude
2,6,1,../static/images/invador2.png,3,80,8,10,right,74,1,1351,1.526774075,0,0,2,0,do not exclude
2,7,1,../static/images/invador1.png,4,20,8,2.5,left,74,-1,1103,0.529757941,2,0,2,0,do not exclude
2,8,1,../static/images/invador2.png,3,80,8,10,left,70,1,1306,1.34586389,2,0,2,0,do not exclude
2,9,1,../static/images/invador3.png,2,20,2,10,left,74,-1,1428,1.836331504,0,0,2,0,do not exclude
2,10,1,../static/images/invador1.png,4,20,8,2.5,left,74,-1,1084,0.453373641,0,0,2,0,do not exclude
2,11,1,../static/images/invador1.png,4,20,8,2.5,left,74,-1,1160,0.758910843,2,0,2,0,do not exclude
2,12,1,../static/images/invador4.png,1,80,2,40,left,70,1,1391,1.687583129,0,0,2,0,do not exclude
2,13,1,../static/images/invador1.png,4,20,8,2.5,left,70,1,1322,1.410187511,1,0,2,0,do not exclude
2,14,1,../static/images/invador4.png,1,80,2,40,left,74,-1,1024,0.21216006,2,0,2,0,do not exclude
2,15,1,../static/images/invador2.png,3,80,8,10,left,70,1,1337,1.470490906,0,0,2,0,do not exclude
2,16,1,../static/images/invador1.png,4,20,8,2.5,left,74,-1,1118,0.590061337,0,0,2,0,do not exclude
2,17,1,../static/images/invador1.png,4,20,8,2.5,left,74,-1,933,-0.153680537,2,0,2,0,do not exclude
2,18,1,../static/images/invador1.png,4,20,8,2.5,left,74,-1,1043,0.288544361,0,0,2,0,do not exclude
2,19,1,../static/images/invador3.png,2,20,2,10,left,74,-1,1159,0.754890617,0,0,2,0,do not exclude
2,20,1,../static/images/invador1.png,4,20,8,2.5,left,74,-1,1033,0.248342097,0,0,2,0,do not exclude
2,21,1,../static/images/invador1.png,4,20,8,2.5,left,74,-1,977,0.023209422,1,0,2,0,do not exclude
2,22,1,../static/images/invador1.png,4,20,8,2.5,left,70,NaN,NaN,NaN,0,1,2,0,do not exclude
2,23,1,../static/images/invador3.png,2,20,2,10,right,74,1,1387,1.671502224,1,0,2,0,do not exclude
2,24,1,../static/images/invador4.png,1,80,2,40,right,74,1,1044,0.292564587,0,0,2,0,do not exclude
2,25,1,../static/images/invador1.png,4,20,8,2.5,left,74,-1,1058,0.348847756,0,0,2,0,do not exclude
2,26,1,../static/images/invador2.png,3,80,8,10,left,70,1,1467,1.993120331,0,0,2,0,do not exclude
2,27,1,../static/images/invador1.png,4,20,8,2.5,left,74,-1,872,-0.398914345,0,0,2,0,do not exclude
2,28,1,../static/images/invador1.png,4,20,8,2.5,left,74,-1,828,-0.575804304,0,0,2,0,do not exclude
2,29,1,../static/images/invador4.png,1,80,2,40,left,74,-1,479,-1.978863299,2,0,2,0,do not exclude
2,30,1,../static/images/invador1.png,4,20,8,2.5,left,74,-1,841,-0.523541361,2,0,2,0,do not exclude
2,31,1,../static/images/invador1.png,4,20,8,2.5,left,74,-1,974,0.011148743,0,0,2,0,do not exclude
2,32,1,../static/images/invador1.png,4,20,8,2.5,right,70,-1,935,-0.145640085,0,0,2,0,do not exclude
2,33,1,../static/images/invador3.png,2,20,2,10,right,70,-1,1326,1.426268417,0,0,2,0,do not exclude
2,34,1,../static/images/invador2.png,3,80,8,10,right,70,-1,749,-0.893402185,0,0,2,0,do not exclude
2,35,1,../static/images/invador1.png,4,20,8,2.5,right,70,-1,1001,0.119694854,0,0,2,0,do not exclude
2,36,1,../static/images/invador2.png,3,80,8,10,left,74,-1,1072,0.405130925,2,0,2,0,do not exclude
2,37,1,../static/images/invador1.png,4,20,8,2.5,left,74,-1,1052,0.324726398,0,0,2,0,do not exclude
2,38,1,../static/images/invador1.png,4,20,8,2.5,right,74,1,1027,0.224220739,1,0,2,0,do not exclude
2,39,1,../static/images/invador1.png,4,20,8,2.5,left,70,1,1047,0.304625266,1,0,2,0,do not exclude
2,40,1,../static/images/invador3.png,2,20,2,10,right,70,-1,1271,1.205155968,0,0,2,0,do not exclude
2,41,1,../static/images/invador4.png,1,80,2,40,left,70,1,925,-0.185842348,0,0,2,0,do not exclude
2,42,1,../static/images/invador2.png,3,80,8,10,right,74,1,1358,1.55491566,0,0,2,0,do not exclude
2,43,1,../static/images/invador1.png,4,20,8,2.5,right,70,-1,1004,0.131755533,0,0,2,0,do not exclude
2,44,1,../static/images/invador1.png,4,20,8,2.5,left,74,-1,798,-0.696411094,0,0,2,0,do not exclude
2,45,1,../static/images/invador4.png,1,80,2,40,left,70,1,1108,0.549859073,0,0,2,0,do not exclude
2,46,1,../static/images/invador1.png,4,20,8,2.5,right,70,-1,805,-0.66826951,2,0,2,0,do not exclude
2,47,1,../static/images/invador3.png,2,20,2,10,right,70,-1,1454,1.940857389,0,0,2,0,do not exclude
2,48,1,../static/images/invador1.png,4,20,8,2.5,left,74,-1,818,-0.616006567,0,0,2,0,do not exclude
2,49,1,../static/images/invador1.png,4,20,8,2.5,left,74,-1,999,0.111654401,0,0,2,0,do not exclude
2,50,1,../static/images/invador4.png,1,80,2,40,right,74,1,1125,0.618202921,0,0,2,0,do not exclude
2,51,1,../static/images/invador2.png,3,80,8,10,left,70,1,1417,1.792109014,0,0,2,0,do not exclude
2,52,1,../static/images/invador1.png,4,20,8,2.5,right,70,-1,1036,0.260402776,0,0,2,0,do not exclude
2,53,1,../static/images/invador1.png,4,20,8,2.5,left,74,-1,869,-0.410975024,0,0,2,0,do not exclude
2,54,1,../static/images/invador1.png,4,20,8,2.5,left,74,-1,790,-0.728572905,0,0,2,0,do not exclude
2,55,1,../static/images/invador3.png,2,20,2,10,right,70,-1,1106,0.54181862,0,0,2,0,do not exclude
2,56,1,../static/images/invador1.png,4,20,8,2.5,left,70,1,863,-0.435096382,1,0,2,0,do not exclude
2,57,1,../static/images/invador1.png,4,20,8,2.5,left,74,-1,901,-0.282327781,0,0,2,0,do not exclude
2,58,1,../static/images/invador2.png,3,80,8,10,left,70,1,1369,1.599138149,0,0,2,0,do not exclude
2,59,1,../static/images/invador1.png,4,20,8,2.5,right,70,-1,819,-0.611986341,0,0,2,0,do not exclude
2,60,1,../static/images/invador1.png,4,20,8,2.5,right,70,-1,750,-0.889381959,0,0,2,0,do not exclude
2,61,1,../static/images/invador4.png,1,80,2,40,right,74,1,1400,1.723765166,0,0,2,0,do not exclude
2,62,1,../static/images/invador3.png,2,20,2,10,left,70,1,819,-0.611986341,1,0,2,0,do not exclude
2,63,1,../static/images/invador3.png,2,20,2,10,right,70,-1,829,-0.571784077,0,0,2,0,do not exclude
2,64,1,../static/images/invador4.png,1,80,2,40,left,70,1,1057,0.344827529,0,0,2,0,do not exclude
2,65,1,../static/images/invador1.png,4,20,8,2.5,left,74,-1,949,-0.089356916,0,0,2,0,do not exclude
2,66,1,../static/images/invador2.png,3,80,8,10,right,74,1,1113,0.569960205,0,0,2,0,do not exclude
2,67,1,../static/images/invador1.png,4,20,8,2.5,left,74,-1,814,-0.632087473,2,0,2,0,do not exclude
2,68,1,../static/images/invador1.png,4,20,8,2.5,left,74,-1,976,0.019189195,0,0,2,0,do not exclude
2,69,1,../static/images/invador1.png,4,20,8,2.5,left,74,-1,752,-0.881341506,0,0,2,0,do not exclude
2,70,1,../static/images/invador4.png,1,80,2,40,left,70,1,889,-0.330570497,1,0,2,0,do not exclude
2,71,1,../static/images/invador1.png,4,20,8,2.5,left,74,-1,882,-0.358712081,0,0,2,0,do not exclude
2,72,1,../static/images/invador1.png,4,20,8,2.5,left,74,-1,825,-0.587864983,0,0,2,0,do not exclude
2,73,1,../static/images/invador1.png,4,20,8,2.5,right,70,-1,663,-1.239141651,0,0,2,0,do not exclude
2,74,1,../static/images/invador3.png,2,20,2,10,left,74,-1,673,-1.198939387,0,0,2,0,do not exclude
2,75,1,../static/images/invador2.png,3,80,8,10,left,70,1,808,-0.656208831,1,0,2,0,do not exclude
2,76,1,../static/images/invador1.png,4,20,8,2.5,right,70,-1,806,-0.664249283,0,0,2,0,do not exclude
2,77,1,../static/images/invador1.png,4,20,8,2.5,right,70,-1,784,-0.752694263,0,0,2,0,do not exclude
2,78,1,../static/images/invador1.png,4,20,8,2.5,right,70,-1,754,-0.873301053,2,0,2,0,do not exclude
2,79,1,../static/images/invador2.png,3,80,8,10,left,70,1,597,-1.50447659,1,0,2,0,do not exclude
2,80,1,../static/images/invador4.png,1,80,2,40,right,70,-1,637,-1.343667536,2,0,2,0,do not exclude
2,81,1,../static/images/invador1.png,4,20,8,2.5,right,70,-1,1041,0.280503908,0,0,2,0,do not exclude
2,82,1,../static/images/invador3.png,2,20,2,10,left,74,-1,1091,0.481515225,0,0,2,0,do not exclude
2,83,1,../static/images/invador1.png,4,20,8,2.5,right,70,-1,674,-1.194919161,0,0,2,0,do not exclude
2,84,1,../static/images/invador1.png,4,20,8,2.5,right,70,-1,826,-0.583844757,0,0,2,0,do not exclude
2,85,1,../static/images/invador3.png,2,20,2,10,right,70,-1,1264,1.177014383,0,0,2,0,do not exclude
2,86,1,../static/images/invador1.png,4,20,8,2.5,left,70,1,883,-0.354691855,1,0,2,0,do not exclude
2,87,1,../static/images/invador2.png,3,80,8,10,right,74,1,801,-0.684350415,1,0,2,0,do not exclude
2,88,1,../static/images/invador1.png,4,20,8,2.5,left,74,-1,863,-0.435096382,0,0,2,0,do not exclude
2,89,1,../static/images/invador1.png,4,20,8,2.5,left,74,-1,737,-0.941644901,0,0,2,0,do not exclude
2,90,1,../static/images/invador4.png,1,80,2,40,left,70,1,1025,0.216180286,0,0,2,0,do not exclude
2,91,1,../static/images/invador1.png,4,20,8,2.5,right,70,-1,867,-0.419015476,0,0,2,0,do not exclude
2,92,1,../static/images/invador1.png,4,20,8,2.5,right,70,-1,1183,0.851376049,2,0,2,0,do not exclude
2,93,1,../static/images/invador3.png,2,20,2,10,right,70,-1,1515,2.186091196,0,0,2,0,do not exclude
2,94,1,../static/images/invador2.png,3,80,8,10,right,74,1,1325,1.42224819,0,0,2,0,do not exclude
2,95,1,../static/images/invador4.png,1,80,2,40,left,70,1,1044,0.292564587,0,0,2,0,do not exclude
2,96,1,../static/images/invador1.png,4,20,8,2.5,right,70,-1,683,-1.158737124,0,0,2,0,do not exclude
2,97,1,../static/images/invador1.png,4,20,8,2.5,right,70,-1,705,-1.070292144,0,0,2,0,do not exclude
2,98,1,../static/images/invador4.png,1,80,2,40,right,74,1,1285,1.261439136,0,0,2,0,do not exclude
2,99,1,../static/images/invador1.png,4,20,8,2.5,left,70,1,669,-1.215020293,1,0,2,0,do not exclude
2,100,1,../static/images/invador1.png,4,20,8,2.5,left,74,-1,891,-0.322530044,0,0,2,0,do not exclude
2,101,1,../static/images/invador2.png,3,80,8,10,right,70,-1,575,-1.592921569,0,0,2,0,do not exclude
2,102,1,../static/images/invador1.png,4,20,8,2.5,right,70,-1,464,-2.039166694,0,0,2,0,do not exclude
2,103,1,../static/images/invador1.png,4,20,8,2.5,left,74,-1,733,-0.957725807,0,0,2,0,do not exclude
2,104,1,../static/images/invador3.png,2,20,2,10,left,74,-1,1159,0.754890617,0,0,2,0,do not exclude
2,105,1,../static/images/invador4.png,1,80,2,40,right,74,1,1157,0.746850164,0,0,2,0,do not exclude
2,106,1,../static/images/invador1.png,4,20,8,2.5,left,74,-1,744,-0.913503317,0,0,2,0,do not exclude
2,107,1,../static/images/invador1.png,4,20,8,2.5,right,70,-1,721,-1.005968523,0,0,2,0,do not exclude
2,108,1,../static/images/invador1.png,4,20,8,2.5,right,74,1,886,-0.342631176,1,0,2,0,do not exclude
2,109,1,../static/images/invador1.png,4,20,8,2.5,right,70,-1,858,-0.455197513,0,0,2,0,do not exclude
2,110,1,../static/images/invador2.png,3,80,8,10,left,70,1,750,-0.889381959,1,0,2,0,do not exclude
2,111,1,../static/images/invador3.png,2,20,2,10,right,70,-1,854,-0.471278419,0,0,2,0,do not exclude
2,112,1,../static/images/invador1.png,4,20,8,2.5,right,70,-1,695,-1.110494408,0,0,2,0,do not exclude
2,113,1,../static/images/invador1.png,4,20,8,2.5,left,74,-1,699,-1.094413502,0,0,2,0,do not exclude
2,114,1,../static/images/invador3.png,2,20,2,10,right,70,-1,630,-1.37180912,0,0,2,0,do not exclude
2,115,1,../static/images/invador4.png,1,80,2,40,right,70,-1,909,-0.25016597,2,0,2,0,do not exclude
2,116,1,../static/images/invador1.png,4,20,8,2.5,left,74,-1,891,-0.322530044,0,0,2,0,do not exclude
2,117,1,../static/images/invador1.png,4,20,8,2.5,right,70,-1,567,-1.62508338,2,0,2,0,do not exclude
2,118,1,../static/images/invador2.png,3,80,8,10,right,74,1,1253,1.132791893,0,0,2,0,do not exclude
2,119,1,../static/images/invador1.png,4,20,8,2.5,left,74,-1,853,-0.475298645,0,0,2,0,do not exclude
2,120,1,../static/images/invador3.png,2,20,2,10,left,74,-1,759,-0.853199922,0,0,2,0,do not exclude
2,121,1,../static/images/invador2.png,3,80,8,10,right,74,1,1361,1.566976339,0,0,2,0,do not exclude
2,122,1,../static/images/invador1.png,4,20,8,2.5,left,70,1,816,-0.62404702,1,0,2,0,do not exclude
2,123,1,../static/images/invador1.png,4,20,8,2.5,left,74,-1,677,-1.182858482,2,0,2,0,do not exclude
2,124,1,../static/images/invador1.png,4,20,8,2.5,left,74,-1,625,-1.391910252,2,0,2,0,do not exclude
2,125,1,../static/images/invador4.png,1,80,2,40,right,70,-1,662,-1.243161877,2,0,2,0,do not exclude
2,126,1,../static/images/invador2.png,3,80,8,10,right,74,1,1444,1.900655125,0,0,2,0,do not exclude
2,127,1,../static/images/invador1.png,4,20,8,2.5,left,74,-1,894,-0.310469365,0,0,2,0,do not exclude
2,128,1,../static/images/invador3.png,2,20,2,10,left,74,-1,968,-0.012972615,0,0,2,0,do not exclude
2,129,1,../static/images/invador4.png,1,80,2,40,left,70,1,1214,0.976003066,0,0,2,0,do not exclude
2,130,1,../static/images/invador1.png,4,20,8,2.5,right,70,-1,704,-1.074312371,0,0,2,0,do not exclude
2,131,1,../static/images/invador1.png,4,20,8,2.5,left,74,-1,853,-0.475298645,0,0,2,0,do not exclude
2,132,1,../static/images/invador1.png,4,20,8,2.5,right,70,-1,814,-0.632087473,2,0,2,0,do not exclude
2,133,1,../static/images/invador2.png,3,80,8,10,left,74,-1,1959,3.971071694,0,0,2,0,do not exclude
2,134,1,../static/images/invador3.png,2,20,2,10,right,74,NaN,NaN,NaN,1,1,2,0,do not exclude
2,135,1,../static/images/invador1.png,4,20,8,2.5,left,74,-1,1152,0.726749032,0,0,2,0,do not exclude
2,136,1,../static/images/invador1.png,4,20,8,2.5,right,70,-1,635,-1.351707989,2,0,2,0,do not exclude
2,137,1,../static/images/invador1.png,4,20,8,2.5,right,70,-1,950,-0.08533669,0,0,2,0,do not exclude
2,138,1,../static/images/invador1.png,4,20,8,2.5,right,70,-1,651,-1.287384367,2,0,2,0,do not exclude
2,139,1,../static/images/invador4.png,1,80,2,40,left,70,1,529,-1.777851981,1,0,2,0,do not exclude
2,140,1,../static/images/invador2.png,3,80,8,10,right,74,1,1414,1.780048335,0,0,2,0,do not exclude
2,141,1,../static/images/invador1.png,4,20,8,2.5,right,70,-1,1084,0.453373641,0,0,2,0,do not exclude
2,142,1,../static/images/invador4.png,1,80,2,40,right,74,1,1236,1.064448045,0,0,2,0,do not exclude
2,143,1,../static/images/invador1.png,4,20,8,2.5,right,70,-1,823,-0.595905436,0,0,2,0,do not exclude
2,144,1,../static/images/invador3.png,2,20,2,10,left,74,-1,727,-0.981847165,2,0,2,0,do not exclude
2,145,1,../static/images/invador1.png,4,20,8,2.5,left,74,-1,839,-0.531581814,0,0,2,0,do not exclude
2,146,1,../static/images/invador1.png,4,20,8,2.5,left,74,-1,785,-0.748674037,0,0,2,0,do not exclude
2,147,1,../static/images/invador4.png,1,80,2,40,right,70,-1,727,-0.981847165,2,0,2,0,do not exclude
2,148,1,../static/images/invador1.png,4,20,8,2.5,left,74,-1,1143,0.690566995,0,0,2,0,do not exclude
2,149,1,../static/images/invador1.png,4,20,8,2.5,left,74,-1,846,-0.50344023,0,0,2,0,do not exclude
2,150,1,../static/images/invador1.png,4,20,8,2.5,right,70,-1,778,-0.776815621,0,0,2,0,do not exclude
2,151,0,../static/images/invador4.png,1,80,2,40,right,74,1,1298,1.313702079,0,0,2,0,do not exclude
2,152,0,../static/images/invador3.png,2,20,2,10,right,70,-1,885,-0.346651402,2,0,2,0,do not exclude
2,153,0,../static/images/invador4.png,1,80,2,40,left,70,1,1222,1.008164877,0,0,2,0,do not exclude
2,154,0,../static/images/invador4.png,1,80,2,40,left,70,1,1022,0.204119607,0,0,2,0,do not exclude
2,155,0,../static/images/invador3.png,2,20,2,10,right,70,-1,761,-0.845159469,0,0,2,0,do not exclude
2,156,0,../static/images/invador4.png,1,80,2,40,right,74,1,1101,0.521717489,0,0,2,0,do not exclude
2,157,0,../static/images/invador4.png,1,80,2,40,right,74,1,830,-0.567763851,1,0,2,0,do not exclude
2,158,0,../static/images/invador4.png,1,80,2,40,left,70,1,1111,0.561919752,0,0,2,0,do not exclude
2,159,0,../static/images/invador2.png,3,80,8,10,left,70,1,1214,0.976003066,0,0,2,0,do not exclude
2,160,0,../static/images/invador1.png,4,20,8,2.5,right,70,-1,848,-0.495399777,0,0,2,0,do not exclude
2,161,0,../static/images/invador2.png,3,80,8,10,left,74,-1,1095,0.497596131,2,0,2,0,do not exclude
2,162,0,../static/images/invador3.png,2,20,2,10,left,74,-1,1082,0.445333188,0,0,2,0,do not exclude
2,163,0,../static/images/invador4.png,1,80,2,40,right,74,1,899,-0.290368233,1,0,2,0,do not exclude
2,164,0,../static/images/invador4.png,1,80,2,40,right,70,-1,834,-0.551682946,2,0,2,0,do not exclude
2,165,0,../static/images/invador1.png,4,20,8,2.5,right,70,-1,971,-0.000911936,0,0,2,0,do not exclude
2,166,0,../static/images/invador4.png,1,80,2,40,left,70,1,1320,1.402147058,0,0,2,0,do not exclude
2,167,0,../static/images/invador4.png,1,80,2,40,left,70,1,942,-0.1174985,0,0,2,0,do not exclude
2,168,0,../static/images/invador2.png,3,80,8,10,right,74,NaN,NaN,NaN,0,1,2,0,do not exclude
2,169,0,../static/images/invador1.png,4,20,8,2.5,left,74,-1,975,0.015168969,0,0,2,0,do not exclude
2,170,0,../static/images/invador4.png,1,80,2,40,right,74,1,986,0.059391459,0,0,2,0,do not exclude
2,171,0,../static/images/invador4.png,1,80,2,40,right,74,1,1213,0.971982839,0,0,2,0,do not exclude
2,172,0,../static/images/invador4.png,1,80,2,40,right,74,1,1144,0.694587222,0,0,2,0,do not exclude
2,173,0,../static/images/invador3.png,2,20,2,10,right,70,-1,915,-0.226044612,0,0,2,0,do not exclude
2,174,0,../static/images/invador4.png,1,80,2,40,left,70,1,1059,0.352867982,0,0,2,0,do not exclude
2,175,0,../static/images/invador4.png,1,80,2,40,right,74,1,1087,0.46543432,0,0,2,0,do not exclude
2,176,0,../static/images/invador1.png,4,20,8,2.5,right,70,-1,778,-0.776815621,0,0,2,0,do not exclude
2,177,0,../static/images/invador2.png,3,80,8,10,left,74,-1,1152,0.726749032,0,0,2,0,do not exclude
2,178,0,../static/images/invador3.png,2,20,2,10,right,70,-1,695,-1.110494408,0,0,2,0,do not exclude
2,179,0,../static/images/invador4.png,1,80,2,40,left,70,1,1066,0.381009567,0,0,2,0,do not exclude
2,180,0,../static/images/invador4.png,1,80,2,40,left,70,1,1008,0.147836438,0,0,2,0,do not exclude
2,181,0,../static/images/invador4.png,1,80,2,40,left,70,1,790,-0.728572905,1,0,2,0,do not exclude
2,182,0,../static/images/invador4.png,1,80,2,40,right,74,1,1174,0.815194012,0,0,2,0,do not exclude
2,183,0,../static/images/invador2.png,3,80,8,10,right,70,-1,694,-1.114514634,2,0,2,0,do not exclude
2,184,0,../static/images/invador4.png,1,80,2,40,right,74,1,1227,1.028266008,0,0,2,0,do not exclude
2,185,0,../static/images/invador4.png,1,80,2,40,right,74,1,848,-0.495399777,0,0,2,0,do not exclude
2,186,0,../static/images/invador1.png,4,20,8,2.5,left,74,-1,816,-0.62404702,2,0,2,0,do not exclude
2,187,0,../static/images/invador3.png,2,20,2,10,left,70,1,537,-1.745690171,1,0,2,0,do not exclude
2,188,0,../static/images/invador4.png,1,80,2,40,right,74,1,1222,1.008164877,0,0,2,0,do not exclude
2,189,0,../static/images/invador4.png,1,80,2,40,right,74,1,1293,1.293600947,0,0,2,0,do not exclude
2,190,0,../static/images/invador3.png,2,20,2,10,left,74,-1,674,-1.194919161,2,0,2,0,do not exclude
2,191,0,../static/images/invador1.png,4,20,8,2.5,left,74,-1,975,0.015168969,0,0,2,0,do not exclude
2,192,0,../static/images/invador2.png,3,80,8,10,right,74,1,818,-0.616006567,1,0,2,0,do not exclude
2,193,0,../static/images/invador4.png,1,80,2,40,right,74,1,1220,1.000124424,0,0,2,0,do not exclude
2,194,0,../static/images/invador4.png,1,80,2,40,right,74,1,1185,0.859416502,0,0,2,0,do not exclude
2,195,0,../static/images/invador4.png,1,80,2,40,right,74,1,1150,0.71870858,0,0,2,0,do not exclude
2,196,0,../static/images/invador2.png,3,80,8,10,right,70,-1,1568,2.399163192,0,0,2,0,do not exclude
2,197,0,../static/images/invador4.png,1,80,2,40,left,70,1,1335,1.462450454,0,0,2,0,do not exclude
2,198,0,../static/images/invador3.png,2,20,2,10,left,74,-1,847,-0.499420003,0,0,2,0,do not exclude
2,199,0,../static/images/invador4.png,1,80,2,40,right,74,1,1147,0.706647901,0,0,2,0,do not exclude
2,200,0,../static/images/invador4.png,1,80,2,40,left,70,1,1190,0.879517633,0,0,2,0,do not exclude
2,201,0,../static/images/invador4.png,1,80,2,40,left,70,1,1198,0.911679444,0,0,2,0,do not exclude
2,202,0,../static/images/invador1.png,4,20,8,2.5,right,70,-1,852,-0.479318872,0,0,2,0,do not exclude
2,203,0,../static/images/invador3.png,2,20,2,10,right,74,1,604,-1.476335005,1,0,2,0,do not exclude
2,204,0,../static/images/invador1.png,4,20,8,2.5,left,74,-1,960,-0.045134426,0,0,2,0,do not exclude
2,205,0,../static/images/invador2.png,3,80,8,10,left,74,-1,772,-0.800936979,0,0,2,0,do not exclude
2,206,0,../static/images/invador4.png,1,80,2,40,right,74,1,999,0.111654401,0,0,2,0,do not exclude
2,207,0,../static/images/invador4.png,1,80,2,40,left,70,1,1190,0.879517633,0,0,2,0,do not exclude
2,208,0,../static/images/invador4.png,1,80,2,40,left,70,1,1146,0.702627674,0,0,2,0,do not exclude
2,209,0,../static/images/invador4.png,1,80,2,40,right,74,1,1207,0.947861481,0,0,2,0,do not exclude
2,210,0,../static/images/invador2.png,3,80,8,10,right,70,-1,980,0.035270101,0,0,2,0,do not exclude
2,211,0,../static/images/invador1.png,4,20,8,2.5,left,74,-1,584,-1.556739532,2,0,2,0,do not exclude
2,212,0,../static/images/invador4.png,1,80,2,40,left,70,1,1311,1.365965021,0,0,2,0,do not exclude
2,213,0,../static/images/invador4.png,1,80,2,40,right,74,1,1226,1.024245782,0,0,2,0,do not exclude
2,214,0,../static/images/invador3.png,2,20,2,10,right,74,1,767,-0.821038111,1,0,2,0,do not exclude
2,215,0,../static/images/invador4.png,1,80,2,40,right,74,1,1201,0.923740123,0,0,2,0,do not exclude
2,216,0,../static/images/invador4.png,1,80,2,40,right,74,1,1206,0.943841255,0,0,2,0,do not exclude
2,217,0,../static/images/invador1.png,4,20,8,2.5,right,70,-1,864,-0.431076155,0,0,2,0,do not exclude
2,218,0,../static/images/invador4.png,1,80,2,40,left,70,1,1210,0.95992216,0,0,2,0,do not exclude
2,219,0,../static/images/invador3.png,2,20,2,10,right,70,-1,729,-0.973806712,0,0,2,0,do not exclude
2,220,0,../static/images/invador4.png,1,80,2,40,left,70,1,1128,0.6302636,0,0,2,0,do not exclude
2,221,0,../static/images/invador4.png,1,80,2,40,left,70,1,713,-1.038130334,1,0,2,0,do not exclude
2,222,0,../static/images/invador2.png,3,80,8,10,left,74,-1,933,-0.153680537,0,0,2,0,do not exclude
2,223,0,../static/images/invador4.png,1,80,2,40,right,74,1,764,-0.83309879,1,0,2,0,do not exclude
2,224,0,../static/images/invador4.png,1,80,2,40,left,70,1,1240,1.080528951,0,0,2,0,do not exclude
2,225,0,../static/images/invador4.png,1,80,2,40,left,70,1,606,-1.468294553,1,0,2,0,do not exclude
2,226,0,../static/images/invador4.png,1,80,2,40,right,74,1,1130,0.638304053,0,0,2,0,do not exclude
2,227,0,../static/images/invador3.png,2,20,2,10,left,74,-1,715,-1.030089881,2,0,2,0,do not exclude
2,228,0,../static/images/invador2.png,3,80,8,10,left,74,-1,602,-1.484375458,2,0,2,0,do not exclude
2,229,0,../static/images/invador1.png,4,20,8,2.5,right,70,-1,957,-0.057195105,0,0,2,0,do not exclude
2,230,0,../static/images/invador4.png,1,80,2,40,right,74,1,758,-0.857220148,1,0,2,0,do not exclude
2,231,0,../static/images/invador4.png,1,80,2,40,left,70,1,1309,1.357924569,0,0,2,0,do not exclude
2,232,0,../static/images/invador4.png,1,80,2,40,right,74,1,894,-0.310469365,1,0,2,0,do not exclude
2,233,0,../static/images/invador1.png,4,20,8,2.5,right,70,-1,806,-0.664249283,0,0,2,0,do not exclude
2,234,0,../static/images/invador4.png,1,80,2,40,right,74,1,1320,1.402147058,0,0,2,0,do not exclude
2,235,0,../static/images/invador2.png,3,80,8,10,right,74,1,744,-0.913503317,1,0,2,0,do not exclude
2,236,0,../static/images/invador4.png,1,80,2,40,right,74,1,1283,1.253398684,0,0,2,0,do not exclude
2,237,0,../static/images/invador3.png,2,20,2,10,right,70,-1,911,-0.242125517,0,0,2,0,do not exclude
2,238,0,../static/images/invador3.png,2,20,2,10,left,74,-1,767,-0.821038111,0,0,2,0,do not exclude
2,239,0,../static/images/invador4.png,1,80,2,40,left,70,1,692,-1.122555087,1,0,2,0,do not exclude
2,240,0,../static/images/invador4.png,1,80,2,40,left,70,1,1161,0.762931069,0,0,2,0,do not exclude
2,241,0,../static/images/invador1.png,4,20,8,2.5,right,70,-1,655,-1.271303462,2,0,2,0,do not exclude
2,242,0,../static/images/invador4.png,1,80,2,40,right,74,1,1350,1.522753849,0,0,2,0,do not exclude
2,243,0,../static/images/invador2.png,3,80,8,10,right,74,1,781,-0.764754942,1,0,2,0,do not exclude
2,244,0,../static/images/invador4.png,1,80,2,40,right,74,1,1365,1.583057244,0,0,2,0,do not exclude
2,245,0,../static/images/invador4.png,1,80,2,40,right,74,1,1148,0.710668127,0,0,2,0,do not exclude
2,246,0,../static/images/invador1.png,4,20,8,2.5,left,74,-1,641,-1.327586631,2,0,2,0,do not exclude
2,247,0,../static/images/invador4.png,1,80,2,40,left,70,1,1373,1.615219055,0,0,2,0,do not exclude
2,248,0,../static/images/invador3.png,2,20,2,10,right,70,-1,867,-0.419015476,0,0,2,0,do not exclude
2,249,0,../static/images/invador4.png,1,80,2,40,left,74,-1,618,-1.420051836,2,0,2,0,do not exclude
2,250,0,../static/images/invador4.png,1,80,2,40,right,74,1,1344,1.498632491,0,0,2,0,do not exclude
2,251,0,../static/images/invador2.png,3,80,8,10,left,74,-1,934,-0.149660311,0,0,2,0,do not exclude
2,252,0,../static/images/invador1.png,4,20,8,2.5,left,74,-1,692,-1.122555087,0,0,2,0,do not exclude
2,253,0,../static/images/invador3.png,2,20,2,10,left,70,1,764,-0.83309879,1,0,2,0,do not exclude
2,254,0,../static/images/invador4.png,1,80,2,40,left,74,-1,659,-1.255222556,2,0,2,0,do not exclude
2,255,0,../static/images/invador4.png,1,80,2,40,right,74,1,1305,1.341843663,0,0,2,0,do not exclude
2,256,0,../static/images/invador4.png,1,80,2,40,right,74,1,1322,1.410187511,0,0,2,0,do not exclude
2,257,0,../static/images/invador4.png,1,80,2,40,right,74,1,1124,0.614182695,0,0,2,0,do not exclude
2,258,0,../static/images/invador2.png,3,80,8,10,right,74,1,872,-0.398914345,1,0,2,0,do not exclude
2,259,0,../static/images/invador4.png,1,80,2,40,left,70,1,668,-1.219040519,1,0,2,0,do not exclude
2,260,0,../static/images/invador3.png,2,20,2,10,right,70,-1,937,-0.137599632,0,0,2,0,do not exclude
2,261,0,../static/images/invador2.png,3,80,8,10,right,70,-1,720,-1.009988749,2,0,2,0,do not exclude
2,262,0,../static/images/invador4.png,1,80,2,40,right,70,-1,585,-1.552719306,2,0,2,0,do not exclude
2,263,0,../static/images/invador4.png,1,80,2,40,right,74,1,1326,1.426268417,0,0,2,0,do not exclude
2,264,0,../static/images/invador1.png,4,20,8,2.5,left,74,-1,787,-0.740633584,0,0,2,0,do not exclude
2,265,0,../static/images/invador4.png,1,80,2,40,left,74,-1,607,-1.464274326,2,0,2,0,do not exclude
2,266,0,../static/images/invador4.png,1,80,2,40,left,70,1,1270,1.201135741,0,0,2,0,do not exclude
2,267,0,../static/images/invador4.png,1,80,2,40,left,70,1,1052,0.324726398,0,0,2,0,do not exclude
2,268,0,../static/images/invador2.png,3,80,8,10,left,74,-1,869,-0.410975024,0,0,2,0,do not exclude
2,269,0,../static/images/invador4.png,1,80,2,40,left,74,-1,636,-1.347687762,2,0,2,0,do not exclude
2,270,0,../static/images/invador4.png,1,80,2,40,left,70,1,1190,0.879517633,0,0,2,0,do not exclude
2,271,0,../static/images/invador3.png,2,20,2,10,right,74,1,772,-0.800936979,1,0,2,0,do not exclude
2,272,0,../static/images/invador1.png,4,20,8,2.5,right,70,-1,910,-0.246145743,0,0,2,0,do not exclude
2,273,0,../static/images/invador4.png,1,80,2,40,right,74,1,1213,0.971982839,0,0,2,0,do not exclude
2,274,0,../static/images/invador4.png,1,80,2,40,right,70,-1,704,-1.074312371,2,0,2,0,do not exclude
2,275,0,../static/images/invador2.png,3,80,8,10,right,70,-1,1410,1.76396743,0,0,2,0,do not exclude
2,276,0,../static/images/invador1.png,4,20,8,2.5,left,74,-1,800,-0.688370642,0,0,2,0,do not exclude
2,277,0,../static/images/invador4.png,1,80,2,40,right,74,1,1067,0.385029793,0,0,2,0,do not exclude
2,278,0,../static/images/invador3.png,2,20,2,10,right,74,1,645,-1.311505725,1,0,2,0,do not exclude
2,279,0,../static/images/invador4.png,1,80,2,40,left,70,1,1240,1.080528951,0,0,2,0,do not exclude
2,280,0,../static/images/invador2.png,3,80,8,10,right,70,-1,1084,0.453373641,0,0,2,0,do not exclude
2,281,0,../static/images/invador4.png,1,80,2,40,right,70,-1,521,-1.810013792,2,0,2,0,do not exclude
2,282,0,../static/images/invador1.png,4,20,8,2.5,left,74,-1,876,-0.382833439,0,0,2,0,do not exclude
2,283,0,../static/images/invador3.png,2,20,2,10,right,70,-1,636,-1.347687762,0,0,2,0,do not exclude
2,284,0,../static/images/invador4.png,1,80,2,40,right,74,1,1090,0.477494999,0,0,2,0,do not exclude
2,285,0,../static/images/invador4.png,1,80,2,40,left,70,1,1417,1.792109014,0,0,2,0,do not exclude
2,286,0,../static/images/invador4.png,1,80,2,40,right,74,1,1233,1.052387366,0,0,2,0,do not exclude
2,287,0,../static/images/invador4.png,1,80,2,40,left,70,1,1206,0.943841255,0,0,2,0,do not exclude
2,288,0,../static/images/invador4.png,1,80,2,40,right,74,1,1315,1.382045927,0,0,2,0,do not exclude
2,289,0,../static/images/invador3.png,2,20,2,10,left,74,-1,834,-0.551682946,0,0,2,0,do not exclude
2,290,0,../static/images/invador4.png,1,80,2,40,right,74,1,1193,0.891578313,0,0,2,0,do not exclude
2,291,0,../static/images/invador4.png,1,80,2,40,left,70,1,1056,0.340807303,0,0,2,0,do not exclude
2,292,0,../static/images/invador2.png,3,80,8,10,left,74,-1,671,-1.20697984,2,0,2,0,do not exclude
2,293,0,../static/images/invador1.png,4,20,8,2.5,left,74,-1,859,-0.451177287,0,0,2,0,do not exclude
2,294,0,../static/images/invador4.png,1,80,2,40,left,70,1,688,-1.138635992,1,0,2,0,do not exclude
2,295,0,../static/images/invador3.png,2,20,2,10,left,70,1,791,-0.724552679,1,0,2,0,do not exclude
2,296,0,../static/images/invador1.png,4,20,8,2.5,right,70,-1,769,-0.812997658,0,0,2,0,do not exclude
2,297,0,../static/images/invador2.png,3,80,8,10,left,74,-1,685,-1.150696671,2,0,2,0,do not exclude
2,298,0,../static/images/invador4.png,1,80,2,40,right,70,-1,669,-1.215020293,2,0,2,0,do not exclude
2,299,0,../static/images/invador4.png,1,80,2,40,left,70,1,1211,0.963942387,0,0,2,0,do not exclude
2,300,0,../static/images/invador4.png,1,80,2,40,left,70,1,632,-1.363768668,1,0,2,0,do not exclude
2,301,0,../static/images/invador4.png,1,80,2,40,right,74,1,733,-0.957725807,1,0,2,0,do not exclude
2,302,0,../static/images/invador1.png,4,20,8,2.5,right,70,-1,980,0.035270101,0,0,2,0,do not exclude
2,303,0,../static/images/invador4.png,1,80,2,40,left,70,1,1140,0.678506316,0,0,2,0,do not exclude
2,304,0,../static/images/invador3.png,2,20,2,10,right,70,-1,673,-1.198939387,0,0,2,0,do not exclude
2,305,0,../static/images/invador4.png,1,80,2,40,left,70,1,1195,0.899618765,0,0,2,0,do not exclude
2,306,0,../static/images/invador2.png,3,80,8,10,left,74,-1,1214,0.976003066,0,0,2,0,do not exclude
2,307,0,../static/images/invador4.png,1,80,2,40,right,74,1,1248,1.112690762,0,0,2,0,do not exclude
2,308,0,../static/images/invador1.png,4,20,8,2.5,left,74,-1,781,-0.764754942,0,0,2,0,do not exclude
2,309,0,../static/images/invador2.png,3,80,8,10,right,70,-1,1050,0.316685945,0,0,2,0,do not exclude
2,310,0,../static/images/invador4.png,1,80,2,40,right,74,1,1034,0.252362323,0,0,2,0,do not exclude
2,311,0,../static/images/invador3.png,2,20,2,10,left,74,-1,799,-0.692390868,0,0,2,0,do not exclude
2,312,0,../static/images/invador4.png,1,80,2,40,left,70,1,661,-1.247182104,1,0,2,0,do not exclude
2,313,0,../static/images/invador4.png,1,80,2,40,left,70,1,1194,0.895598539,0,0,2,0,do not exclude
2,314,0,../static/images/invador4.png,1,80,2,40,right,74,1,1236,1.064448045,0,0,2,0,do not exclude
2,315,0,../static/images/invador3.png,2,20,2,10,right,70,-1,705,-1.070292144,0,0,2,0,do not exclude
2,316,0,../static/images/invador4.png,1,80,2,40,left,74,-1,613,-1.440152968,2,0,2,0,do not exclude
2,317,0,../static/images/invador4.png,1,80,2,40,left,70,1,1297,1.309681852,0,0,2,0,do not exclude
3,0,0,../static/images/invador3.png,4,20,8,2.5,left,70,1,1029,0.52253978,0,0,1,0,do not exclude
3,1,0,../static/images/invador2.png,1,80,2,40,right,70,-1,802,-0.460717063,2,0,1,0,do not exclude
3,2,0,../static/images/invador4.png,2,20,2,10,right,74,1,1461,2.39375985,0,0,1,0,do not exclude
3,3,0,../static/images/invador2.png,1,80,2,40,left,70,1,1354,1.930286361,0,0,1,0,do not exclude
3,4,0,../static/images/invador2.png,1,80,2,40,right,74,1,1059,0.652485618,0,0,1,0,do not exclude
3,5,0,../static/images/invador2.png,1,80,2,40,right,74,1,900,-0.036227325,0,0,1,0,do not exclude
3,6,0,../static/images/invador1.png,3,80,8,10,left,70,1,1025,0.505213668,0,0,1,0,do not exclude
3,7,0,../static/images/invador2.png,1,80,2,40,left,74,-1,716,-0.833228466,2,0,1,0,do not exclude
3,8,0,../static/images/invador2.png,1,80,2,40,left,70,1,832,-0.330771225,0,0,1,0,do not exclude
3,9,0,../static/images/invador1.png,3,80,8,10,right,70,-1,1213,1.319540921,0,0,1,0,do not exclude
3,10,0,../static/images/invador3.png,4,20,8,2.5,right,74,1,632,-1.197076813,1,0,1,0,do not exclude
3,11,0,../static/images/invador2.png,1,80,2,40,right,74,1,670,-1.032478751,1,0,1,0,do not exclude
3,12,0,../static/images/invador2.png,1,80,2,40,right,74,1,818,-0.391412616,0,0,1,0,do not exclude
3,13,0,../static/images/invador4.png,2,20,2,10,left,74,-1,834,-0.322108169,2,0,1,0,do not exclude
3,14,0,../static/images/invador1.png,3,80,8,10,right,74,NaN,NaN,NaN,0,1,1,0,do not exclude
3,15,0,../static/images/invador3.png,4,20,8,2.5,right,70,-1,1166,1.115959108,0,0,1,0,do not exclude
3,16,0,../static/images/invador2.png,1,80,2,40,left,70,1,824,-0.365423448,0,0,1,0,do not exclude
3,17,0,../static/images/invador2.png,1,80,2,40,right,74,1,1047,0.600507283,0,0,1,0,do not exclude
3,18,0,../static/images/invador2.png,1,80,2,40,left,70,1,775,-0.577668317,0,0,1,0,do not exclude
3,19,0,../static/images/invador2.png,1,80,2,40,left,70,1,720,-0.815902354,0,0,1,0,do not exclude
3,20,0,../static/images/invador4.png,2,20,2,10,right,70,-1,1236,1.419166064,0,0,1,0,do not exclude
3,21,0,../static/images/invador2.png,1,80,2,40,left,70,1,945,0.158691433,0,0,1,0,do not exclude
3,22,0,../static/images/invador3.png,4,20,8,2.5,left,74,-1,990,0.35361019,0,0,1,0,do not exclude
3,23,0,../static/images/invador4.png,2,20,2,10,left,74,-1,223,-2.968671741,0,0,1,0,do not exclude
3,24,0,../static/images/invador2.png,1,80,2,40,right,74,1,777,-0.569005261,0,0,1,0,do not exclude
3,25,0,../static/images/invador2.png,1,80,2,40,right,74,1,771,-0.594994429,0,0,1,0,do not exclude
3,26,0,../static/images/invador1.png,3,80,8,10,left,70,1,707,-0.872212217,1,0,1,0,do not exclude
3,27,0,../static/images/invador2.png,1,80,2,40,right,74,NaN,NaN,NaN,0,1,1,0,do not exclude
3,28,0,../static/images/invador3.png,4,20,8,2.5,right,70,-1,953,0.193343656,0,0,1,0,do not exclude
3,29,0,../static/images/invador2.png,1,80,2,40,right,74,1,811,-0.421733311,0,0,1,0,do not exclude
3,30,0,../static/images/invador4.png,2,20,2,10,left,74,-1,896,-0.053553436,0,0,1,0,do not exclude
3,31,0,../static/images/invador1.png,3,80,8,10,right,70,-1,841,-0.291787473,0,0,1,0,do not exclude
3,32,0,../static/images/invador2.png,1,80,2,40,left,70,1,836,-0.313445113,0,0,1,0,do not exclude
3,33,0,../static/images/invador2.png,1,80,2,40,left,70,1,917,0.03740865,1,0,1,0,do not exclude
3,34,0,../static/images/invador2.png,1,80,2,40,left,74,-1,644,-1.145098478,2,0,1,0,do not exclude
3,35,0,../static/images/invador2.png,1,80,2,40,right,70,-1,699,-0.906864441,2,0,1,0,do not exclude
3,36,0,../static/images/invador2.png,1,80,2,40,right,74,1,890,-0.079542604,0,0,1,0,do not exclude
3,37,0,../static/images/invador2.png,1,80,2,40,left,70,1,666,-1.049804863,0,0,1,0,do not exclude
3,38,0,../static/images/invador2.png,1,80,2,40,left,70,1,600,-1.335685707,0,0,1,0,do not exclude
3,39,0,../static/images/invador1.png,3,80,8,10,right,74,1,492,-1.803490725,1,0,1,0,do not exclude
3,40,0,../static/images/invador3.png,4,20,8,2.5,left,74,-1,926,0.076392402,0,0,1,0,do not exclude
3,41,0,../static/images/invador4.png,2,20,2,10,right,74,1,741,-0.724940267,0,0,1,0,do not exclude
3,42,0,../static/images/invador2.png,1,80,2,40,right,74,1,934,0.111044625,0,0,1,0,do not exclude
3,43,0,../static/images/invador3.png,4,20,8,2.5,right,74,1,702,-0.893869857,1,0,1,0,do not exclude
3,44,0,../static/images/invador2.png,1,80,2,40,right,74,1,1249,1.475475927,0,0,1,0,do not exclude
3,45,0,../static/images/invador2.png,1,80,2,40,right,74,1,757,-0.65563582,0,0,1,0,do not exclude
3,46,0,../static/images/invador1.png,3,80,8,10,right,74,1,1467,2.419749018,0,0,1,0,do not exclude
3,47,0,../static/images/invador4.png,2,20,2,10,right,70,-1,992,0.362273246,0,0,1,0,do not exclude
3,48,0,../static/images/invador2.png,1,80,2,40,left,70,1,1368,1.990927752,0,0,1,0,do not exclude
3,49,0,../static/images/invador2.png,1,80,2,40,right,70,-1,710,-0.859217633,2,0,1,0,do not exclude
3,50,0,../static/images/invador2.png,1,80,2,40,right,70,-1,644,-1.145098478,2,0,1,0,do not exclude
3,51,0,../static/images/invador2.png,1,80,2,40,left,70,1,1273,1.579432598,0,0,1,0,do not exclude
3,52,0,../static/images/invador2.png,1,80,2,40,right,74,1,1096,0.812752152,0,0,1,0,do not exclude
3,53,0,../static/images/invador1.png,3,80,8,10,left,74,-1,639,-1.166756117,2,0,1,0,do not exclude
3,54,0,../static/images/invador4.png,2,20,2,10,right,74,NaN,NaN,NaN,0,1,1,0,do not exclude
3,55,0,../static/images/invador3.png,4,20,8,2.5,right,70,-1,1008,0.431577693,0,0,1,0,do not exclude
3,56,0,../static/images/invador4.png,2,20,2,10,right,70,-1,732,-0.763924019,2,0,1,0,do not exclude
3,57,0,../static/images/invador2.png,1,80,2,40,left,70,1,857,-0.222483026,0,0,1,0,do not exclude
3,58,0,../static/images/invador2.png,1,80,2,40,left,70,1,960,0.223664352,0,0,1,0,do not exclude
3,59,0,../static/images/invador2.png,1,80,2,40,right,74,1,766,-0.616652069,0,0,1,0,do not exclude
3,60,0,../static/images/invador1.png,3,80,8,10,right,70,-1,865,-0.187830803,0,0,1,0,do not exclude
3,61,0,../static/images/invador3.png,4,20,8,2.5,left,74,-1,895,-0.057884964,0,0,1,0,do not exclude
3,62,0,../static/images/invador2.png,1,80,2,40,right,74,NaN,NaN,NaN,0,1,1,0,do not exclude
3,63,0,../static/images/invador4.png,2,20,2,10,right,70,-1,808,-0.434727895,2,0,1,0,do not exclude
3,64,0,../static/images/invador2.png,1,80,2,40,right,74,1,1263,1.536117318,0,0,1,0,do not exclude
3,65,0,../static/images/invador2.png,1,80,2,40,left,74,-1,840,-0.296119001,2,0,1,0,do not exclude
3,66,0,../static/images/invador3.png,4,20,8,2.5,right,70,-1,938,0.128370737,0,0,1,0,do not exclude
3,67,0,../static/images/invador2.png,1,80,2,40,left,70,1,907,-0.005906629,0,0,1,0,do not exclude
3,68,0,../static/images/invador1.png,3,80,8,10,left,74,-1,1054,0.630827978,0,0,1,0,do not exclude
3,69,0,../static/images/invador2.png,1,80,2,40,left,70,1,837,-0.309113585,0,0,1,0,do not exclude
3,70,0,../static/images/invador4.png,2,20,2,10,left,74,-1,979,0.305963383,0,0,1,0,do not exclude
3,71,0,../static/images/invador2.png,1,80,2,40,left,70,1,677,-1.002158056,1,0,1,0,do not exclude
3,72,0,../static/images/invador1.png,3,80,8,10,right,70,-1,1266,1.549111902,0,0,1,0,do not exclude
3,73,0,../static/images/invador2.png,1,80,2,40,left,70,1,935,0.115376153,0,0,1,0,do not exclude
3,74,0,../static/images/invador2.png,1,80,2,40,right,74,1,728,-0.781250131,0,0,1,0,do not exclude
3,75,0,../static/images/invador3.png,4,20,8,2.5,left,70,1,1450,2.346113043,0,0,1,0,do not exclude
3,76,0,../static/images/invador2.png,1,80,2,40,right,74,1,1238,1.42782912,0,0,1,0,do not exclude
3,77,0,../static/images/invador2.png,1,80,2,40,right,74,NaN,NaN,NaN,1,1,1,0,do not exclude
3,78,0,../static/images/invador2.png,1,80,2,40,left,70,1,1053,0.62649645,0,0,1,0,do not exclude
3,79,0,../static/images/invador1.png,3,80,8,10,left,70,1,685,-0.967505832,1,0,1,0,do not exclude
3,80,0,../static/images/invador4.png,2,20,2,10,left,74,-1,1130,0.960024102,0,0,1,0,do not exclude
3,81,0,../static/images/invador3.png,4,20,8,2.5,right,74,1,571,-1.461300017,1,0,1,0,do not exclude
3,82,0,../static/images/invador2.png,1,80,2,40,right,74,1,1297,1.683389268,0,0,1,0,do not exclude
3,83,0,../static/images/invador2.png,1,80,2,40,left,70,1,985,0.33195255,0,0,1,0,do not exclude
3,84,0,../static/images/invador2.png,1,80,2,40,right,74,1,781,-0.55167915,0,0,1,0,do not exclude
3,85,0,../static/images/invador2.png,1,80,2,40,left,70,1,871,-0.161841635,0,0,1,0,do not exclude
3,86,0,../static/images/invador2.png,1,80,2,40,left,70,1,1065,0.678474786,0,0,1,0,do not exclude
3,87,0,../static/images/invador2.png,1,80,2,40,right,74,1,870,-0.166173163,0,0,1,0,do not exclude
3,88,0,../static/images/invador4.png,2,20,2,10,left,70,1,876,-0.140183995,0,0,1,0,do not exclude
3,89,0,../static/images/invador3.png,4,20,8,2.5,right,70,-1,1084,0.760773817,0,0,1,0,do not exclude
3,90,0,../static/images/invador1.png,3,80,8,10,left,74,-1,928,0.085055458,0,0,1,0,do not exclude
3,91,0,../static/images/invador2.png,1,80,2,40,right,70,-1,652,-1.110446254,2,0,1,0,do not exclude
3,92,0,../static/images/invador2.png,1,80,2,40,left,70,1,1232,1.401839952,0,0,1,0,do not exclude
3,93,0,../static/images/invador2.png,1,80,2,40,right,74,1,955,0.202006712,0,0,1,0,do not exclude
3,94,0,../static/images/invador3.png,4,20,8,2.5,left,74,-1,881,-0.118526355,0,0,1,0,do not exclude
3,95,0,../static/images/invador4.png,2,20,2,10,right,70,-1,944,0.154359905,0,0,1,0,do not exclude
3,96,0,../static/images/invador2.png,1,80,2,40,left,70,1,1063,0.66981173,0,0,1,0,do not exclude
3,97,0,../static/images/invador1.png,3,80,8,10,right,70,-1,835,-0.317776641,0,0,1,0,do not exclude
3,98,0,../static/images/invador2.png,1,80,2,40,left,70,1,949,0.176017545,0,0,1,0,do not exclude
3,99,0,../static/images/invador1.png,3,80,8,10,left,74,-1,687,-0.958842776,0,0,1,0,do not exclude
3,100,0,../static/images/invador2.png,1,80,2,40,right,74,1,1032,0.535534364,0,0,1,0,do not exclude
3,101,0,../static/images/invador3.png,4,20,8,2.5,left,70,1,726,-0.789913186,1,0,1,0,do not exclude
3,102,0,../static/images/invador2.png,1,80,2,40,left,70,1,1191,1.224247306,0,0,1,0,do not exclude
3,103,0,../static/images/invador4.png,2,20,2,10,right,70,-1,787,-0.525689982,2,0,1,0,do not exclude
3,104,0,../static/images/invador2.png,1,80,2,40,left,70,1,750,-0.685956516,0,0,1,0,do not exclude
3,105,0,../static/images/invador4.png,2,20,2,10,left,70,1,1212,1.315209393,0,0,1,0,do not exclude
3,106,0,../static/images/invador1.png,3,80,8,10,right,70,-1,796,-0.486706231,0,0,1,0,do not exclude
3,107,0,../static/images/invador2.png,1,80,2,40,left,70,1,940,0.137033793,0,0,1,0,do not exclude
3,108,0,../static/images/invador2.png,1,80,2,40,right,74,1,1309,1.735367603,0,0,1,0,do not exclude
3,109,0,../static/images/invador3.png,4,20,8,2.5,left,74,-1,1199,1.25889953,0,0,1,0,do not exclude
3,110,0,../static/images/invador2.png,1,80,2,40,left,70,1,1202,1.271894114,0,0,1,0,do not exclude
3,111,0,../static/images/invador2.png,1,80,2,40,right,74,1,1454,2.363439155,0,0,1,0,do not exclude
3,112,0,../static/images/invador2.png,1,80,2,40,right,74,1,1495,2.5410318,0,0,1,0,do not exclude
3,113,0,../static/images/invador2.png,1,80,2,40,left,70,1,1482,2.484721937,0,0,1,0,do not exclude
3,114,0,../static/images/invador2.png,1,80,2,40,right,74,1,1009,0.435909221,0,0,1,0,do not exclude
3,115,0,../static/images/invador3.png,4,20,8,2.5,left,74,-1,1125,0.938366462,0,0,1,0,do not exclude
3,116,0,../static/images/invador2.png,1,80,2,40,left,74,-1,663,-1.062799447,2,0,1,0,do not exclude
3,117,0,../static/images/invador1.png,3,80,8,10,right,70,-1,1102,0.83874132,0,0,1,0,do not exclude
3,118,0,../static/images/invador4.png,2,20,2,10,left,70,1,1316,1.765688299,0,0,1,0,do not exclude
3,119,0,../static/images/invador2.png,1,80,2,40,left,70,1,1387,2.073226783,0,0,1,0,do not exclude
3,120,0,../static/images/invador4.png,2,20,2,10,left,70,1,1040,0.570186587,0,0,1,0,do not exclude
3,121,0,../static/images/invador2.png,1,80,2,40,left,70,1,1256,1.505796623,0,0,1,0,do not exclude
3,122,0,../static/images/invador3.png,4,20,8,2.5,right,74,1,788,-0.521358454,1,0,1,0,do not exclude
3,123,0,../static/images/invador1.png,3,80,8,10,right,74,1,1029,0.52253978,1,0,1,0,do not exclude
3,124,0,../static/images/invador2.png,1,80,2,40,right,74,NaN,NaN,NaN,0,1,1,0,do not exclude
3,125,0,../static/images/invador2.png,1,80,2,40,right,74,1,1044,0.587512699,0,0,1,0,do not exclude
3,126,0,../static/images/invador1.png,3,80,8,10,left,74,-1,1302,1.705046908,0,0,1,0,do not exclude
3,127,0,../static/images/invador2.png,1,80,2,40,left,70,1,933,0.106713097,0,0,1,0,do not exclude
3,128,0,../static/images/invador4.png,2,20,2,10,left,70,1,1118,0.908045767,0,0,1,0,do not exclude
3,129,0,../static/images/invador2.png,1,80,2,40,left,70,1,1281,1.614084821,0,0,1,0,do not exclude
3,130,0,../static/images/invador3.png,4,20,8,2.5,left,70,1,762,-0.633978181,1,0,1,0,do not exclude
3,131,0,../static/images/invador2.png,1,80,2,40,left,70,1,1093,0.799757568,0,0,1,0,do not exclude
3,132,0,../static/images/invador2.png,1,80,2,40,left,74,-1,53,-3.705031491,2,0,1,0,do not exclude
3,133,0,../static/images/invador1.png,3,80,8,10,left,70,1,1123,0.929703406,0,0,1,0,do not exclude
3,134,0,../static/images/invador3.png,4,20,8,2.5,left,74,-1,962,0.232327408,0,0,1,0,do not exclude
3,135,0,../static/images/invador2.png,1,80,2,40,right,74,1,1185,1.198258139,0,0,1,0,do not exclude
3,136,0,../static/images/invador2.png,1,80,2,40,left,74,-1,608,-1.301033483,2,0,1,0,do not exclude
3,137,0,../static/images/invador4.png,2,20,2,10,left,70,1,1089,0.782431456,0,0,1,0,do not exclude
3,138,0,../static/images/invador2.png,1,80,2,40,left,70,1,1078,0.734784649,0,0,1,0,do not exclude
3,139,0,../static/images/invador2.png,1,80,2,40,left,74,-1,633,-1.192745285,2,0,1,0,do not exclude
3,140,0,../static/images/invador2.png,1,80,2,40,left,70,1,982,0.318957967,0,0,1,0,do not exclude
3,141,0,../static/images/invador2.png,1,80,2,40,right,74,1,948,0.171686017,0,0,1,0,do not exclude
3,142,1,../static/images/invador3.png,4,20,8,2.5,left,74,-1,1298,1.687720796,0,0,1,0,do not exclude
3,143,1,../static/images/invador3.png,4,20,8,2.5,right,70,-1,788,-0.521358454,0,0,1,0,do not exclude
3,144,1,../static/images/invador3.png,4,20,8,2.5,left,74,-1,819,-0.387081088,0,0,1,0,do not exclude
3,145,1,../static/images/invador4.png,2,20,2,10,right,74,1,750,-0.685956516,1,0,1,0,do not exclude
3,146,1,../static/images/invador1.png,3,80,8,10,right,70,-1,1003,0.409920053,0,0,1,0,do not exclude
3,147,1,../static/images/invador2.png,1,80,2,40,right,74,1,843,-0.283124417,0,0,1,0,do not exclude
3,148,1,../static/images/invador3.png,4,20,8,2.5,right,70,-1,932,0.10238157,0,0,1,0,do not exclude
3,149,1,../static/images/invador1.png,3,80,8,10,right,70,-1,1220,1.349861617,0,0,1,0,do not exclude
3,150,1,../static/images/invador3.png,4,20,8,2.5,left,74,-1,959,0.219332824,0,0,1,0,do not exclude
3,151,1,../static/images/invador3.png,4,20,8,2.5,right,70,-1,833,-0.326439697,0,0,1,0,do not exclude
3,152,1,../static/images/invador4.png,2,20,2,10,left,74,-1,494,-1.794827669,2,0,1,0,do not exclude
3,153,1,../static/images/invador3.png,4,20,8,2.5,right,70,-1,799,-0.473711647,0,0,1,0,do not exclude
3,154,1,../static/images/invador3.png,4,20,8,2.5,left,74,-1,891,-0.075211076,0,0,1,0,do not exclude
3,155,1,../static/images/invador2.png,1,80,2,40,left,70,1,803,-0.456385535,0,0,1,0,do not exclude
3,156,1,../static/images/invador3.png,4,20,8,2.5,right,70,-1,816,-0.400075672,0,0,1,0,do not exclude
3,157,1,../static/images/invador3.png,4,20,8,2.5,right,70,-1,848,-0.261466778,0,0,1,0,do not exclude
3,158,1,../static/images/invador3.png,4,20,8,2.5,left,74,-1,660,-1.075794031,0,0,1,0,do not exclude
3,159,1,../static/images/invador1.png,3,80,8,10,left,74,-1,837,-0.309113585,0,0,1,0,do not exclude
3,160,1,../static/images/invador4.png,2,20,2,10,left,70,1,729,-0.776918603,0,0,1,0,do not exclude
3,161,1,../static/images/invador3.png,4,20,8,2.5,left,74,-1,704,-0.885206801,1,0,1,0,do not exclude
3,162,1,../static/images/invador4.png,2,20,2,10,right,74,NaN,NaN,NaN,0,1,1,0,do not exclude
3,163,1,../static/images/invador3.png,4,20,8,2.5,right,70,-1,1045,0.591844227,0,0,1,0,do not exclude
3,164,1,../static/images/invador3.png,4,20,8,2.5,left,74,-1,1005,0.418583109,0,0,1,0,do not exclude
3,165,1,../static/images/invador2.png,1,80,2,40,left,70,1,1120,0.916708822,0,0,1,0,do not exclude
3,166,1,../static/images/invador1.png,3,80,8,10,left,74,-1,990,0.35361019,0,0,1,0,do not exclude
3,167,1,../static/images/invador3.png,4,20,8,2.5,left,74,-1,831,-0.335102753,0,0,1,0,do not exclude
3,168,1,../static/images/invador4.png,2,20,2,10,right,74,NaN,NaN,NaN,0,1,1,0,do not exclude
3,169,1,../static/images/invador3.png,4,20,8,2.5,right,70,-1,1377,2.029911503,0,0,1,0,do not exclude
3,170,1,../static/images/invador1.png,3,80,8,10,right,70,-1,899,-0.040558853,0,0,1,0,do not exclude
3,171,1,../static/images/invador3.png,4,20,8,2.5,right,70,-1,789,-0.517026926,0,0,1,0,do not exclude
3,172,1,../static/images/invador2.png,1,80,2,40,left,70,1,1082,0.752110761,0,0,1,0,do not exclude
3,173,1,../static/images/invador3.png,4,20,8,2.5,right,74,NaN,NaN,NaN,1,1,1,0,do not exclude
3,174,1,../static/images/invador3.png,4,20,8,2.5,left,74,-1,1147,1.033660077,0,0,1,0,do not exclude
3,175,1,../static/images/invador3.png,4,20,8,2.5,left,74,-1,1000,0.39692547,0,0,1,0,do not exclude
3,176,1,../static/images/invador3.png,4,20,8,2.5,right,70,-1,791,-0.50836387,0,0,1,0,do not exclude
3,177,1,../static/images/invador4.png,2,20,2,10,right,74,1,766,-0.616652069,0,0,1,0,do not exclude
3,178,1,../static/images/invador3.png,4,20,8,2.5,left,74,-1,967,0.253985047,0,0,1,0,do not exclude
3,179,1,../static/images/invador2.png,1,80,2,40,right,74,1,963,0.236658936,0,0,1,0,do not exclude
3,180,1,../static/images/invador3.png,4,20,8,2.5,right,70,-1,1325,1.80467205,0,0,1,0,do not exclude
3,181,1,../static/images/invador1.png,3,80,8,10,left,74,-1,956,0.20633824,0,0,1,0,do not exclude
3,182,1,../static/images/invador1.png,3,80,8,10,right,70,-1,687,-0.958842776,2,0,1,0,do not exclude
3,183,1,../static/images/invador3.png,4,20,8,2.5,right,70,-1,1030,0.526871308,0,0,1,0,do not exclude
3,184,1,../static/images/invador4.png,2,20,2,10,left,70,1,1042,0.578849643,0,0,1,0,do not exclude
3,185,1,../static/images/invador3.png,4,20,8,2.5,right,70,-1,708,-0.867880689,2,0,1,0,do not exclude
3,186,1,../static/images/invador3.png,4,20,8,2.5,right,70,-1,1221,1.354193145,0,0,1,0,do not exclude
3,187,1,../static/images/invador2.png,1,80,2,40,right,74,1,887,-0.092537188,0,0,1,0,do not exclude
3,188,1,../static/images/invador3.png,4,20,8,2.5,left,74,-1,870,-0.166173163,0,0,1,0,do not exclude
3,189,1,../static/images/invador3.png,4,20,8,2.5,left,74,-1,942,0.145696849,0,0,1,0,do not exclude
3,190,1,../static/images/invador3.png,4,20,8,2.5,right,70,-1,853,-0.239809138,0,0,1,0,do not exclude
3,191,1,../static/images/invador3.png,4,20,8,2.5,left,74,-1,645,-1.14076695,0,0,1,0,do not exclude
3,192,1,../static/images/invador3.png,4,20,8,2.5,left,74,-1,778,-0.564673733,0,0,1,0,do not exclude
3,193,1,../static/images/invador1.png,3,80,8,10,right,70,-1,904,-0.018901213,0,0,1,0,do not exclude
3,194,1,../static/images/invador2.png,1,80,2,40,right,74,1,1026,0.509545196,0,0,1,0,do not exclude
3,195,1,../static/images/invador4.png,2,20,2,10,left,70,1,1190,1.219915778,0,0,1,0,do not exclude
3,196,1,../static/images/invador3.png,4,20,8,2.5,right,70,-1,1088,0.778099928,0,0,1,0,do not exclude
3,197,1,../static/images/invador1.png,3,80,8,10,right,70,-1,714,-0.841891522,0,0,1,0,do not exclude
3,198,1,../static/images/invador3.png,4,20,8,2.5,right,70,-1,654,-1.101783198,2,0,1,0,do not exclude
3,199,1,../static/images/invador4.png,2,20,2,10,left,70,NaN,NaN,NaN,1,1,1,0,do not exclude
3,200,1,../static/images/invador3.png,4,20,8,2.5,right,70,-1,1078,0.734784649,0,0,1,0,do not exclude
3,201,1,../static/images/invador2.png,1,80,2,40,left,70,1,958,0.215001296,0,0,1,0,do not exclude
3,202,1,../static/images/invador3.png,4,20,8,2.5,right,70,-1,822,-0.374086504,0,0,1,0,do not exclude
3,203,1,../static/images/invador2.png,1,80,2,40,left,70,1,1032,0.535534364,0,0,1,0,do not exclude
3,204,1,../static/images/invador4.png,2,20,2,10,left,70,1,1190,1.219915778,0,0,1,0,do not exclude
3,205,1,../static/images/invador3.png,4,20,8,2.5,right,70,-1,767,-0.612320541,0,0,1,0,do not exclude
3,206,1,../static/images/invador3.png,4,20,8,2.5,right,70,-1,768,-0.607989013,0,0,1,0,do not exclude
3,207,1,../static/images/invador1.png,3,80,8,10,left,74,-1,1070,0.700132425,0,0,1,0,do not exclude
3,208,1,../static/images/invador3.png,4,20,8,2.5,left,74,-1,801,-0.465048591,0,0,1,0,do not exclude
3,209,1,../static/images/invador3.png,4,20,8,2.5,right,70,-1,697,-0.915527497,2,0,1,0,do not exclude
3,210,1,../static/images/invador2.png,1,80,2,40,right,74,1,889,-0.083874132,0,0,1,0,do not exclude
3,211,1,../static/images/invador4.png,2,20,2,10,left,74,-1,682,-0.980500416,2,0,1,0,do not exclude
3,212,1,../static/images/invador3.png,4,20,8,2.5,right,70,-1,953,0.193343656,0,0,1,0,do not exclude
3,213,1,../static/images/invador3.png,4,20,8,2.5,left,74,-1,774,-0.581999845,0,0,1,0,do not exclude
3,214,1,../static/images/invador3.png,4,20,8,2.5,right,70,-1,631,-1.201408341,0,0,1,0,do not exclude
3,215,1,../static/images/invador3.png,4,20,8,2.5,right,70,-1,738,-0.737934851,0,0,1,0,do not exclude
3,216,1,../static/images/invador1.png,3,80,8,10,left,74,-1,845,-0.274461361,0,0,1,0,do not exclude
3,217,1,../static/images/invador2.png,1,80,2,40,left,74,-1,596,-1.353011819,2,0,1,0,do not exclude
3,218,1,../static/images/invador3.png,4,20,8,2.5,left,70,1,842,-0.287455945,1,0,1,0,do not exclude
3,219,1,../static/images/invador1.png,3,80,8,10,right,70,-1,1077,0.730453121,0,0,1,0,do not exclude
3,220,1,../static/images/invador4.png,2,20,2,10,right,74,1,892,-0.070879548,0,0,1,0,do not exclude
3,221,1,../static/images/invador3.png,4,20,8,2.5,right,70,-1,634,-1.188413757,2,0,1,0,do not exclude
3,222,1,../static/images/invador3.png,4,20,8,2.5,right,70,-1,966,0.24965352,0,0,1,0,do not exclude
3,223,1,../static/images/invador3.png,4,20,8,2.5,right,70,-1,642,-1.153761533,0,0,1,0,do not exclude
3,224,1,../static/images/invador3.png,4,20,8,2.5,left,74,-1,588,-1.387664042,2,0,1,0,do not exclude
3,225,1,../static/images/invador1.png,3,80,8,10,right,70,-1,963,0.236658936,0,0,1,0,do not exclude
3,226,1,../static/images/invador2.png,1,80,2,40,left,70,1,1062,0.665480202,0,0,1,0,do not exclude
3,227,1,../static/images/invador3.png,4,20,8,2.5,right,70,-1,775,-0.577668317,0,0,1,0,do not exclude
3,228,1,../static/images/invador4.png,2,20,2,10,right,74,1,1027,0.513876724,0,0,1,0,do not exclude
3,229,1,../static/images/invador3.png,4,20,8,2.5,left,70,1,1106,0.856067431,1,0,1,0,do not exclude
3,230,1,../static/images/invador3.png,4,20,8,2.5,right,70,-1,897,-0.049221908,0,0,1,0,do not exclude
3,231,1,../static/images/invador1.png,3,80,8,10,left,70,1,973,0.279974215,1,0,1,0,do not exclude
3,232,1,../static/images/invador4.png,2,20,2,10,left,70,1,680,-0.989163472,1,0,1,0,do not exclude
3,233,1,../static/images/invador2.png,1,80,2,40,left,70,1,1157,1.076975356,0,0,1,0,do not exclude
3,234,1,../static/images/invador3.png,4,20,8,2.5,left,70,1,600,-1.335685707,1,0,1,0,do not exclude
3,235,1,../static/images/invador3.png,4,20,8,2.5,left,70,1,1126,0.94269799,0,0,1,0,do not exclude
3,236,1,../static/images/invador3.png,4,20,8,2.5,left,74,-1,919,0.046071706,0,0,1,0,do not exclude
3,237,1,../static/images/invador3.png,4,20,8,2.5,right,70,-1,670,-1.032478751,0,0,1,0,do not exclude
3,238,1,../static/images/invador4.png,2,20,2,10,right,74,1,700,-0.902532913,0,0,1,0,do not exclude
3,239,1,../static/images/invador3.png,4,20,8,2.5,left,74,-1,755,-0.664298876,0,0,1,0,do not exclude
3,240,1,../static/images/invador1.png,3,80,8,10,right,70,-1,569,-1.469963073,2,0,1,0,do not exclude
3,241,1,../static/images/invador2.png,1,80,2,40,right,74,1,1030,0.526871308,0,0,1,0,do not exclude
3,242,1,../static/images/invador3.png,4,20,8,2.5,left,74,-1,865,-0.187830803,0,0,1,0,do not exclude
3,243,1,../static/images/invador3.png,4,20,8,2.5,right,70,-1,679,-0.993495,0,0,1,0,do not exclude
3,244,1,../static/images/invador3.png,4,20,8,2.5,left,74,-1,686,-0.963174304,0,0,1,0,do not exclude
3,245,1,../static/images/invador1.png,3,80,8,10,right,74,1,567,-1.478626129,1,0,1,0,do not exclude
3,246,1,../static/images/invador3.png,4,20,8,2.5,right,74,1,1286,1.635742461,1,0,1,0,do not exclude
3,247,1,../static/images/invador4.png,2,20,2,10,left,70,1,1057,0.643822562,0,0,1,0,do not exclude
3,248,1,../static/images/invador3.png,4,20,8,2.5,right,70,-1,937,0.124039209,0,0,1,0,do not exclude
3,249,1,../static/images/invador3.png,4,20,8,2.5,right,70,-1,794,-0.495369286,0,0,1,0,do not exclude
3,250,1,../static/images/invador2.png,1,80,2,40,left,70,1,901,-0.031895797,0,0,1,0,do not exclude
3,251,1,../static/images/invador3.png,4,20,8,2.5,right,70,-1,877,-0.135852467,0,0,1,0,do not exclude
3,252,1,../static/images/invador3.png,4,20,8,2.5,left,74,-1,701,-0.898201385,0,0,1,0,do not exclude
3,253,1,../static/images/invador3.png,4,20,8,2.5,right,70,-1,687,-0.958842776,0,0,1,0,do not exclude
3,254,1,../static/images/invador4.png,2,20,2,10,right,74,1,1175,1.154942859,0,0,1,0,do not exclude
3,255,1,../static/images/invador1.png,3,80,8,10,right,70,-1,1105,0.851735903,0,0,1,0,do not exclude
3,256,1,../static/images/invador2.png,1,80,2,40,left,70,1,869,-0.170504691,0,0,1,0,do not exclude
3,257,1,../static/images/invador3.png,4,20,8,2.5,left,74,-1,862,-0.200825386,0,0,1,0,do not exclude
3,258,1,../static/images/invador3.png,4,20,8,2.5,left,74,-1,855,-0.231146082,0,0,1,0,do not exclude
3,259,1,../static/images/invador3.png,4,20,8,2.5,right,70,-1,850,-0.252803722,0,0,1,0,do not exclude
3,260,1,../static/images/invador2.png,1,80,2,40,left,70,1,1106,0.856067431,0,0,1,0,do not exclude
3,261,1,../static/images/invador3.png,4,20,8,2.5,right,74,1,611,-1.2880389,1,0,1,0,do not exclude
3,262,1,../static/images/invador3.png,4,20,8,2.5,right,70,-1,870,-0.166173163,0,0,1,0,do not exclude
3,263,1,../static/images/invador1.png,3,80,8,10,right,70,-1,539,-1.599908911,2,0,1,0,do not exclude
3,264,1,../static/images/invador4.png,2,20,2,10,right,74,1,1165,1.11162758,0,0,1,0,do not exclude
3,265,1,../static/images/invador3.png,4,20,8,2.5,left,74,-1,819,-0.387081088,0,0,1,0,do not exclude
3,266,1,../static/images/invador3.png,4,20,8,2.5,left,74,-1,656,-1.093120142,0,0,1,0,do not exclude
3,267,1,../static/images/invador3.png,4,20,8,2.5,left,70,1,589,-1.383332514,1,0,1,0,do not exclude
3,268,1,../static/images/invador2.png,1,80,2,40,left,74,-1,747,-0.6989511,2,0,1,0,do not exclude
3,269,1,../static/images/invador3.png,4,20,8,2.5,right,74,1,1013,0.453235333,1,0,1,0,do not exclude
3,270,1,../static/images/invador4.png,2,20,2,10,right,74,1,1139,0.999007853,0,0,1,0,do not exclude
3,271,1,../static/images/invador1.png,3,80,8,10,left,70,1,763,-0.629646653,1,0,1,0,do not exclude
3,272,1,../static/images/invador3.png,4,20,8,2.5,right,70,-1,922,0.05906629,0,0,1,0,do not exclude
3,273,1,../static/images/invador4.png,2,20,2,10,left,70,1,996,0.379599358,0,0,1,0,do not exclude
3,274,1,../static/images/invador3.png,4,20,8,2.5,right,70,-1,571,-1.461300017,0,0,1,0,do not exclude
3,275,1,../static/images/invador1.png,3,80,8,10,right,70,-1,1508,2.597341664,0,0,1,0,do not exclude
3,276,1,../static/images/invador3.png,4,20,8,2.5,right,70,-1,691,-0.941516664,0,0,1,0,do not exclude
3,277,1,../static/images/invador3.png,4,20,8,2.5,right,70,-1,596,-1.353011819,0,0,1,0,do not exclude
3,278,1,../static/images/invador3.png,4,20,8,2.5,right,70,-1,594,-1.361674875,0,0,1,0,do not exclude
3,279,1,../static/images/invador2.png,1,80,2,40,left,70,1,1058,0.64815409,0,0,1,0,do not exclude
3,280,1,../static/images/invador3.png,4,20,8,2.5,left,74,-1,212,-3.016318548,0,0,1,0,do not exclude
3,281,1,../static/images/invador3.png,4,20,8,2.5,right,70,-1,663,-1.062799447,2,0,1,0,do not exclude
3,282,1,../static/images/invador2.png,1,80,2,40,right,70,-1,565,-1.487289185,2,0,1,0,do not exclude
3,283,1,../static/images/invador1.png,3,80,8,10,left,70,1,567,-1.478626129,1,0,1,0,do not exclude
3,284,1,../static/images/invador3.png,4,20,8,2.5,right,70,-1,620,-1.249055148,2,0,1,0,do not exclude
3,285,1,../static/images/invador4.png,2,20,2,10,left,74,-1,451,-1.98108337,2,0,1,0,do not exclude
3,286,1,../static/images/invador3.png,4,20,8,2.5,right,70,-1,1050,0.613501867,0,0,1,0,do not exclude
3,287,1,../static/images/invador3.png,4,20,8,2.5,left,74,-1,654,-1.101783198,0,0,1,0,do not exclude
3,288,1,../static/images/invador1.png,3,80,8,10,left,70,1,998,0.388262414,0,0,1,0,do not exclude
3,289,1,../static/images/invador3.png,4,20,8,2.5,left,74,-1,753,-0.672961932,0,0,1,0,do not exclude
3,290,1,../static/images/invador4.png,2,20,2,10,right,74,1,971,0.271311159,1,0,1,0,do not exclude
3,291,1,../static/images/invador3.png,4,20,8,2.5,right,74,1,909,0.002756427,1,0,1,0,do not exclude
3,292,1,../static/images/invador2.png,1,80,2,40,right,74,1,1024,0.50088214,0,0,1,0,do not exclude
3,293,1,../static/images/invador3.png,4,20,8,2.5,right,70,-1,1089,0.782431456,0,0,1,0,do not exclude
3,294,1,../static/images/invador3.png,4,20,8,2.5,right,70,-1,723,-0.80290777,0,0,1,0,do not exclude
3,295,1,../static/images/invador2.png,1,80,2,40,left,70,1,913,0.020082539,0,0,1,0,do not exclude
3,296,1,../static/images/invador3.png,4,20,8,2.5,left,74,-1,847,-0.265798305,0,0,1,0,do not exclude
3,297,1,../static/images/invador3.png,4,20,8,2.5,left,74,-1,688,-0.954511248,0,0,1,0,do not exclude
3,298,1,../static/images/invador1.png,3,80,8,10,left,74,-1,1014,0.457566861,0,0,1,0,do not exclude
3,299,1,../static/images/invador4.png,2,20,2,10,left,70,1,1011,0.444572277,0,0,1,0,do not exclude
3,300,1,../static/images/invador3.png,4,20,8,2.5,left,74,-1,885,-0.101200244,0,0,1,0,do not exclude
3,301,1,../static/images/invador3.png,4,20,8,2.5,left,70,1,787,-0.525689982,1,0,1,0,do not exclude
3,302,1,../static/images/invador4.png,2,20,2,10,left,70,1,1214,1.323872449,0,0,1,0,do not exclude
3,303,1,../static/images/invador2.png,1,80,2,40,left,70,1,1081,0.747779233,0,0,1,0,do not exclude
3,304,1,../static/images/invador3.png,4,20,8,2.5,left,70,1,830,-0.33943428,1,0,1,0,do not exclude
3,305,1,../static/images/invador1.png,3,80,8,10,right,74,1,629,-1.210071397,1,0,1,0,do not exclude
3,306,1,../static/images/invador3.png,4,20,8,2.5,right,70,-1,1521,2.653651527,0,0,1,0,do not exclude
3,307,1,../static/images/invador3.png,4,20,8,2.5,right,74,NaN,NaN,NaN,0,1,1,0,do not exclude
4,0,1,../static/images/invador2.png,4,20,8,2.5,left,70,1,1217,0.767633951,0,0,2,0,do not exclude
4,1,1,../static/images/invador2.png,4,20,8,2.5,left,74,-1,1091,0.241256385,0,0,2,0,do not exclude
4,2,1,../static/images/invador3.png,3,80,8,10,right,70,-1,766,-1.116463529,2,0,2,0,do not exclude
4,3,1,../static/images/invador2.png,4,20,8,2.5,right,74,1,833,-0.836564346,1,0,2,0,do not exclude
4,4,1,../static/images/invador1.png,2,20,2,10,left,74,-1,786,-1.032911534,2,0,2,0,do not exclude
4,5,1,../static/images/invador2.png,4,20,8,2.5,right,70,-1,494,-2.252770656,2,0,2,0,do not exclude
4,6,1,../static/images/invador4.png,1,80,2,40,right,74,1,1168,0.562931564,0,0,2,0,do not exclude
4,7,1,../static/images/invador4.png,1,80,2,40,left,70,1,1048,0.061619596,0,0,2,0,do not exclude
4,8,1,../static/images/invador2.png,4,20,8,2.5,left,70,1,1396,1.515424303,0,0,2,0,do not exclude
4,9,1,../static/images/invador2.png,4,20,8,2.5,right,70,-1,1509,1.987493073,0,0,2,0,do not exclude
4,10,1,../static/images/invador3.png,3,80,8,10,left,70,1,1253,0.918027541,0,0,2,0,do not exclude
4,11,1,../static/images/invador1.png,2,20,2,10,left,70,1,1325,1.218814722,0,0,2,0,do not exclude
4,12,1,../static/images/invador2.png,4,20,8,2.5,left,74,-1,1260,0.947270739,0,0,2,0,do not exclude
4,13,1,../static/images/invador2.png,4,20,8,2.5,left,74,-1,1167,0.558753964,0,0,2,0,do not exclude
4,14,1,../static/images/invador1.png,2,20,2,10,left,70,1,933,-0.418804373,0,0,2,0,do not exclude
4,15,1,../static/images/invador3.png,3,80,8,10,left,70,1,1254,0.922205141,0,0,2,0,do not exclude
4,16,1,../static/images/invador2.png,4,20,8,2.5,left,74,-1,1233,0.834475547,0,0,2,0,do not exclude
4,17,1,../static/images/invador2.png,4,20,8,2.5,right,70,-1,504,-2.210994658,2,0,2,0,do not exclude
4,18,1,../static/images/invador2.png,4,20,8,2.5,right,74,1,719,-1.312810716,1,0,2,0,do not exclude
4,19,1,../static/images/invador4.png,1,80,2,40,left,70,1,1173,0.583819563,0,0,2,0,do not exclude
4,20,1,../static/images/invador2.png,4,20,8,2.5,left,74,-1,1278,1.022467535,0,0,2,0,do not exclude
4,21,1,../static/images/invador2.png,4,20,8,2.5,left,74,-1,594,-1.835010683,2,0,2,0,do not exclude
4,22,1,../static/images/invador3.png,3,80,8,10,right,74,1,1233,0.834475547,0,0,2,0,do not exclude
4,23,1,../static/images/invador2.png,4,20,8,2.5,left,74,-1,1193,0.667371557,0,0,2,0,do not exclude
4,24,1,../static/images/invador2.png,4,20,8,2.5,right,70,-1,993,-0.168148389,0,0,2,0,do not exclude
4,25,1,../static/images/invador2.png,4,20,8,2.5,left,70,1,734,-1.25014672,1,0,2,0,do not exclude
4,26,1,../static/images/invador1.png,2,20,2,10,left,70,1,1193,0.667371557,0,0,2,0,do not exclude
4,27,1,../static/images/invador4.png,1,80,2,40,right,74,1,1237,0.851185945,0,0,2,0,do not exclude
4,28,1,../static/images/invador2.png,4,20,8,2.5,left,74,-1,1181,0.61724036,0,0,2,0,do not exclude
4,29,1,../static/images/invador2.png,4,20,8,2.5,left,74,-1,924,-0.456402771,0,0,2,0,do not exclude
4,30,1,../static/images/invador2.png,4,20,8,2.5,left,70,1,574,-1.918562677,1,0,2,0,do not exclude
4,31,1,../static/images/invador1.png,2,20,2,10,left,70,1,953,-0.335252379,0,0,2,0,do not exclude
4,32,1,../static/images/invador4.png,1,80,2,40,right,74,1,685,-1.454849107,1,0,2,0,do not exclude
4,33,1,../static/images/invador2.png,4,20,8,2.5,left,74,-1,1150,0.487734769,0,0,2,0,do not exclude
4,34,1,../static/images/invador3.png,3,80,8,10,right,74,1,947,-0.360317977,0,0,2,0,do not exclude
4,35,1,../static/images/invador1.png,2,20,2,10,right,70,-1,765,-1.120641128,2,0,2,0,do not exclude
4,36,1,../static/images/invador2.png,4,20,8,2.5,left,74,-1,1252,0.913849941,0,0,2,0,do not exclude
4,37,1,../static/images/invador2.png,4,20,8,2.5,right,70,-1,872,-0.673637957,0,0,2,0,do not exclude
4,38,1,../static/images/invador2.png,4,20,8,2.5,left,74,-1,523,-2.131620264,2,0,2,0,do not exclude
4,39,1,../static/images/invador2.png,4,20,8,2.5,left,74,-1,1020,-0.055353196,0,0,2,0,do not exclude
4,40,1,../static/images/invador4.png,1,80,2,40,right,74,1,1134,0.420893173,0,0,2,0,do not exclude
4,41,1,../static/images/invador3.png,3,80,8,10,left,70,1,1186,0.638128359,0,0,2,0,do not exclude
4,42,1,../static/images/invador2.png,4,20,8,2.5,left,74,-1,980,-0.222457186,0,0,2,0,do not exclude
4,43,1,../static/images/invador4.png,1,80,2,40,right,74,1,1172,0.579641963,0,0,2,0,do not exclude
4,44,1,../static/images/invador3.png,3,80,8,10,right,74,1,1037,0.015665999,0,0,2,0,do not exclude
4,45,1,../static/images/invador1.png,2,20,2,10,right,70,-1,785,-1.037089134,2,0,2,0,do not exclude
4,46,1,../static/images/invador2.png,4,20,8,2.5,left,74,-1,1369,1.40262911,0,0,2,0,do not exclude
4,47,1,../static/images/invador2.png,4,20,8,2.5,left,74,-1,1075,0.174414789,0,0,2,0,do not exclude
4,48,1,../static/images/invador2.png,4,20,8,2.5,right,70,-1,956,-0.322719579,0,0,2,0,do not exclude
4,49,1,../static/images/invador1.png,2,20,2,10,right,70,-1,738,-1.233436321,2,0,2,0,do not exclude
4,50,1,../static/images/invador2.png,4,20,8,2.5,left,74,-1,1010,-0.097129194,0,0,2,0,do not exclude
4,51,1,../static/images/invador4.png,1,80,2,40,left,70,1,986,-0.197391587,0,0,2,0,do not exclude
4,52,1,../static/images/invador2.png,4,20,8,2.5,left,74,-1,1128,0.395827575,0,0,2,0,do not exclude
4,53,1,../static/images/invador2.png,4,20,8,2.5,right,70,-1,1024,-0.038642798,0,0,2,0,do not exclude
4,54,1,../static/images/invador3.png,3,80,8,10,right,74,1,710,-1.350409114,1,0,2,0,do not exclude
4,55,1,../static/images/invador2.png,4,20,8,2.5,right,70,-1,1377,1.436049908,0,0,2,0,do not exclude
4,56,1,../static/images/invador4.png,1,80,2,40,left,74,-1,899,-0.560842764,2,0,2,0,do not exclude
4,57,1,../static/images/invador1.png,2,20,2,10,left,70,1,942,-0.381205976,0,0,2,0,do not exclude
4,58,1,../static/images/invador3.png,3,80,8,10,right,74,1,1186,0.638128359,0,0,2,0,do not exclude
4,59,1,../static/images/invador2.png,4,20,8,2.5,right,70,-1,1438,1.690883492,0,0,2,0,do not exclude
4,60,1,../static/images/invador2.png,4,20,8,2.5,left,74,-1,939,-0.393738775,0,0,2,0,do not exclude
4,61,1,../static/images/invador2.png,4,20,8,2.5,left,74,-1,861,-0.719591554,0,0,2,0,do not exclude
4,62,1,../static/images/invador2.png,4,20,8,2.5,right,70,-1,1043,0.040731597,0,0,2,0,do not exclude
4,63,1,../static/images/invador2.png,4,20,8,2.5,right,74,1,548,-2.02718027,1,0,2,0,do not exclude
4,64,1,../static/images/invador2.png,4,20,8,2.5,right,70,-1,1005,-0.118017192,0,0,2,0,do not exclude
4,65,1,../static/images/invador2.png,4,20,8,2.5,right,70,-1,973,-0.251700384,0,0,2,0,do not exclude
4,66,1,../static/images/invador4.png,1,80,2,40,right,74,1,717,-1.321165915,1,0,2,0,do not exclude
4,67,1,../static/images/invador1.png,2,20,2,10,right,74,1,838,-0.815676348,1,0,2,0,do not exclude
4,68,1,../static/images/invador2.png,4,20,8,2.5,right,70,-1,762,-1.133173927,2,0,2,0,do not exclude
4,69,1,../static/images/invador3.png,3,80,8,10,left,70,1,1078,0.186947588,0,0,2,0,do not exclude
4,70,1,../static/images/invador3.png,3,80,8,10,left,70,1,1146,0.47102437,0,0,2,0,do not exclude
4,71,1,../static/images/invador2.png,4,20,8,2.5,right,70,-1,1194,0.671549157,0,0,2,0,do not exclude
4,72,1,../static/images/invador4.png,1,80,2,40,right,74,1,972,-0.255877984,0,0,2,0,do not exclude
4,73,1,../static/images/invador2.png,4,20,8,2.5,left,74,-1,1515,2.012558671,0,0,2,0,do not exclude
4,74,1,../static/images/invador2.png,4,20,8,2.5,right,70,-1,1584,2.300813053,0,0,2,0,do not exclude
4,75,1,../static/images/invador1.png,2,20,2,10,right,74,1,1107,0.30809798,0,0,2,0,do not exclude
4,76,1,../static/images/invador2.png,4,20,8,2.5,right,70,-1,1368,1.39845151,0,0,2,0,do not exclude
4,77,1,../static/images/invador1.png,2,20,2,10,right,74,1,688,-1.442316308,1,0,2,0,do not exclude
4,78,1,../static/images/invador2.png,4,20,8,2.5,left,70,1,594,-1.835010683,1,0,2,0,do not exclude
4,79,1,../static/images/invador2.png,4,20,8,2.5,left,70,1,886,-0.615151561,1,0,2,0,do not exclude
4,80,1,../static/images/invador2.png,4,20,8,2.5,right,74,1,427,-2.532669838,1,0,2,0,do not exclude
4,81,1,../static/images/invador2.png,4,20,8,2.5,left,74,-1,1228,0.813587548,0,0,2,0,do not exclude
4,82,1,../static/images/invador3.png,3,80,8,10,right,74,1,996,-0.15561559,0,0,2,0,do not exclude
4,83,1,../static/images/invador4.png,1,80,2,40,left,74,-1,653,-1.588532298,2,0,2,0,do not exclude
4,84,1,../static/images/invador2.png,4,20,8,2.5,right,70,-1,1255,0.926382741,0,0,2,0,do not exclude
4,85,1,../static/images/invador2.png,4,20,8,2.5,right,70,-1,1170,0.571286763,0,0,2,0,do not exclude
4,86,1,../static/images/invador1.png,2,20,2,10,left,70,1,911,-0.510711567,0,0,2,0,do not exclude
4,87,1,../static/images/invador2.png,4,20,8,2.5,left,74,-1,1128,0.395827575,0,0,2,0,do not exclude
4,88,1,../static/images/invador2.png,4,20,8,2.5,left,74,-1,1157,0.516977967,0,0,2,0,do not exclude
4,89,1,../static/images/invador3.png,3,80,8,10,left,70,1,1102,0.287209982,0,0,2,0,do not exclude
4,90,1,../static/images/invador4.png,1,80,2,40,right,74,1,1027,-0.026109998,0,0,2,0,do not exclude
4,91,1,../static/images/invador3.png,3,80,8,10,right,70,-1,722,-1.300277917,2,0,2,0,do not exclude
4,92,1,../static/images/invador1.png,2,20,2,10,right,74,1,1084,0.212013186,0,0,2,0,do not exclude
4,93,1,../static/images/invador4.png,1,80,2,40,left,74,-1,791,-1.012023535,2,0,2,0,do not exclude
4,94,1,../static/images/invador2.png,4,20,8,2.5,left,70,1,685,-1.454849107,1,0,2,0,do not exclude
4,95,1,../static/images/invador2.png,4,20,8,2.5,left,70,1,930,-0.431337172,1,0,2,0,do not exclude
4,96,1,../static/images/invador2.png,4,20,8,2.5,right,70,-1,1127,0.391649975,0,0,2,0,do not exclude
4,97,1,../static/images/invador2.png,4,20,8,2.5,right,70,-1,900,-0.556665164,0,0,2,0,do not exclude
4,98,1,../static/images/invador2.png,4,20,8,2.5,right,70,-1,1181,0.61724036,0,0,2,0,do not exclude
4,99,1,../static/images/invador2.png,4,20,8,2.5,right,70,-1,1179,0.608885161,0,0,2,0,do not exclude
4,100,1,../static/images/invador2.png,4,20,8,2.5,right,70,-1,1158,0.521155567,0,0,2,0,do not exclude
4,101,1,../static/images/invador4.png,1,80,2,40,left,70,1,915,-0.494001168,0,0,2,0,do not exclude
4,102,1,../static/images/invador2.png,4,20,8,2.5,right,70,-1,1257,0.93473794,0,0,2,0,do not exclude
4,103,1,../static/images/invador3.png,3,80,8,10,right,74,1,973,-0.251700384,0,0,2,0,do not exclude
4,104,1,../static/images/invador1.png,2,20,2,10,left,74,-1,821,-0.886695543,2,0,2,0,do not exclude
4,105,1,../static/images/invador2.png,4,20,8,2.5,right,74,1,913,-0.502356368,1,0,2,0,do not exclude
4,106,1,../static/images/invador1.png,2,20,2,10,left,70,1,1288,1.064243532,0,0,2,0,do not exclude
4,107,1,../static/images/invador2.png,4,20,8,2.5,left,70,1,761,-1.137351527,1,0,2,0,do not exclude
4,108,1,../static/images/invador4.png,1,80,2,40,left,70,1,1163,0.542043565,0,0,2,0,do not exclude
4,109,1,../static/images/invador2.png,4,20,8,2.5,left,74,-1,728,-1.275212318,2,0,2,0,do not exclude
4,110,1,../static/images/invador3.png,3,80,8,10,right,74,1,1116,0.345696378,0,0,2,0,do not exclude
4,111,1,../static/images/invador2.png,4,20,8,2.5,right,70,-1,1304,1.131085128,0,0,2,0,do not exclude
4,112,1,../static/images/invador4.png,1,80,2,40,right,74,1,953,-0.335252379,0,0,2,0,do not exclude
4,113,1,../static/images/invador3.png,3,80,8,10,right,70,-1,1186,0.638128359,0,0,2,0,do not exclude
4,114,1,../static/images/invador2.png,4,20,8,2.5,left,74,-1,1208,0.730035553,0,0,2,0,do not exclude
4,115,1,../static/images/invador2.png,4,20,8,2.5,left,74,-1,961,-0.301831581,0,0,2,0,do not exclude
4,116,1,../static/images/invador2.png,4,20,8,2.5,right,70,-1,1194,0.671549157,0,0,2,0,do not exclude
4,117,1,../static/images/invador2.png,4,20,8,2.5,left,74,-1,1029,-0.017754799,0,0,2,0,do not exclude
4,118,1,../static/images/invador1.png,2,20,2,10,right,74,1,977,-0.234989985,0,0,2,0,do not exclude
4,119,1,../static/images/invador2.png,4,20,8,2.5,right,70,-1,1297,1.101841929,0,0,2,0,do not exclude
4,120,1,../static/images/invador2.png,4,20,8,2.5,left,74,-1,851,-0.761367551,0,0,2,0,do not exclude
4,121,1,../static/images/invador1.png,2,20,2,10,left,70,1,870,-0.681993156,0,0,2,0,do not exclude
4,122,1,../static/images/invador2.png,4,20,8,2.5,right,74,1,676,-1.492447504,1,0,2,0,do not exclude
4,123,1,../static/images/invador4.png,1,80,2,40,left,70,1,1486,1.891408279,0,0,2,0,do not exclude
4,124,1,../static/images/invador3.png,3,80,8,10,right,74,1,1443,1.71177149,0,0,2,0,do not exclude
4,125,1,../static/images/invador2.png,4,20,8,2.5,left,74,-1,764,-1.124818728,2,0,2,0,do not exclude
4,126,1,../static/images/invador2.png,4,20,8,2.5,right,70,-1,907,-0.527421966,0,0,2,0,do not exclude
4,127,1,../static/images/invador4.png,1,80,2,40,left,70,1,943,-0.377028376,0,0,2,0,do not exclude
4,128,1,../static/images/invador2.png,4,20,8,2.5,right,70,-1,1294,1.08930913,0,0,2,0,do not exclude
4,129,1,../static/images/invador2.png,4,20,8,2.5,left,70,1,824,-0.874162744,1,0,2,0,do not exclude
4,130,0,../static/images/invador4.png,1,80,2,40,left,70,1,1334,1.25641312,0,0,2,0,do not exclude
4,131,0,../static/images/invador4.png,1,80,2,40,right,74,1,1011,-0.092951594,0,0,2,0,do not exclude
4,132,0,../static/images/invador3.png,3,80,8,10,left,74,-1,859,-0.727946753,2,0,2,0,do not exclude
4,133,0,../static/images/invador4.png,1,80,2,40,right,74,1,1071,0.15770439,0,0,2,0,do not exclude
4,134,0,../static/images/invador3.png,3,80,8,10,left,74,-1,888,-0.606796361,2,0,2,0,do not exclude
4,135,0,../static/images/invador4.png,1,80,2,40,right,74,1,997,-0.15143799,0,0,2,0,do not exclude
4,136,0,../static/images/invador1.png,2,20,2,10,left,70,1,1338,1.273123518,0,0,2,0,do not exclude
4,137,0,../static/images/invador4.png,1,80,2,40,left,70,1,1012,-0.088773994,0,0,2,0,do not exclude
4,138,0,../static/images/invador4.png,1,80,2,40,right,74,1,963,-0.293476381,1,0,2,0,do not exclude
4,139,0,../static/images/invador2.png,4,20,8,2.5,left,74,-1,1638,2.526403438,0,0,2,0,do not exclude
4,140,0,../static/images/invador1.png,2,20,2,10,left,70,1,1118,0.354051577,1,0,2,0,do not exclude
4,141,0,../static/images/invador4.png,1,80,2,40,left,74,-1,777,-1.070509931,2,0,2,0,do not exclude
4,142,0,../static/images/invador2.png,4,20,8,2.5,left,74,-1,1334,1.25641312,0,0,2,0,do not exclude
4,143,0,../static/images/invador4.png,1,80,2,40,right,74,1,946,-0.364495577,0,0,2,0,do not exclude
4,144,0,../static/images/invador4.png,1,80,2,40,right,70,-1,716,-1.325343515,2,0,2,0,do not exclude
4,145,0,../static/images/invador4.png,1,80,2,40,left,70,1,778,-1.066332332,1,0,2,0,do not exclude
4,146,0,../static/images/invador3.png,3,80,8,10,right,74,1,845,-0.78643315,1,0,2,0,do not exclude
4,147,0,../static/images/invador4.png,1,80,2,40,right,74,1,1235,0.842830746,0,0,2,0,do not exclude
4,148,0,../static/images/invador4.png,1,80,2,40,left,70,1,1255,0.926382741,0,0,2,0,do not exclude
4,149,0,../static/images/invador3.png,3,80,8,10,right,74,1,812,-0.924293941,1,0,2,0,do not exclude
4,150,0,../static/images/invador4.png,1,80,2,40,left,70,1,937,-0.402093974,0,0,2,0,do not exclude
4,151,0,../static/images/invador1.png,2,20,2,10,left,70,1,1122,0.370761976,0,0,2,0,do not exclude
4,152,0,../static/images/invador4.png,1,80,2,40,right,74,1,1119,0.358229177,0,0,2,0,do not exclude
4,153,0,../static/images/invador2.png,4,20,8,2.5,right,70,-1,664,-1.542578701,2,0,2,0,do not exclude
4,154,0,../static/images/invador3.png,3,80,8,10,right,70,-1,1854,3.42876498,0,0,2,0,do not exclude
4,155,0,../static/images/invador4.png,1,80,2,40,left,70,1,1117,0.349873978,0,0,2,0,do not exclude
4,156,0,../static/images/invador1.png,2,20,2,10,left,70,1,1076,0.178592389,0,0,2,0,do not exclude
4,157,0,../static/images/invador4.png,1,80,2,40,right,74,1,1031,-0.009399599,0,0,2,0,do not exclude
4,158,0,../static/images/invador4.png,1,80,2,40,right,74,1,1366,1.390096311,0,0,2,0,do not exclude
4,159,0,../static/images/invador2.png,4,20,8,2.5,left,74,-1,1318,1.189571524,0,0,2,0,do not exclude
4,160,0,../static/images/invador4.png,1,80,2,40,right,74,1,983,-0.209924387,0,0,2,0,do not exclude
4,161,0,../static/images/invador3.png,3,80,8,10,left,74,-1,1306,1.139440327,0,0,2,0,do not exclude
4,162,0,../static/images/invador4.png,1,80,2,40,left,70,1,918,-0.481468369,0,0,2,0,do not exclude
4,163,0,../static/images/invador1.png,2,20,2,10,right,70,-1,891,-0.594263562,2,0,2,0,do not exclude
4,164,0,../static/images/invador4.png,1,80,2,40,left,70,1,930,-0.431337172,0,0,2,0,do not exclude
4,165,0,../static/images/invador2.png,4,20,8,2.5,left,74,-1,1150,0.487734769,0,0,2,0,do not exclude
4,166,0,../static/images/invador4.png,1,80,2,40,right,74,1,1041,0.032376398,0,0,2,0,do not exclude
4,167,0,../static/images/invador4.png,1,80,2,40,left,70,1,1065,0.132638792,0,0,2,0,do not exclude
4,168,0,../static/images/invador1.png,2,20,2,10,right,74,1,966,-0.280943582,0,0,2,0,do not exclude
4,169,0,../static/images/invador4.png,1,80,2,40,left,70,1,995,-0.15979319,0,0,2,0,do not exclude
4,170,0,../static/images/invador4.png,1,80,2,40,right,74,1,1002,-0.130549992,0,0,2,0,do not exclude
4,171,0,../static/images/invador2.png,4,20,8,2.5,left,70,1,773,-1.08722033,1,0,2,0,do not exclude
4,172,0,../static/images/invador4.png,1,80,2,40,left,70,1,1315,1.177038725,0,0,2,0,do not exclude
4,173,0,../static/images/invador3.png,3,80,8,10,right,70,-1,1032,-0.005222,0,0,2,0,do not exclude
4,174,0,../static/images/invador4.png,1,80,2,40,right,70,-1,955,-0.326897179,2,0,2,0,do not exclude
4,175,0,../static/images/invador4.png,1,80,2,40,left,70,1,1012,-0.088773994,0,0,2,0,do not exclude
4,176,0,../static/images/invador4.png,1,80,2,40,left,70,1,927,-0.443869972,0,0,2,0,do not exclude
4,177,0,../static/images/invador4.png,1,80,2,40,right,74,1,749,-1.187482724,1,0,2,0,do not exclude
4,178,0,../static/images/invador4.png,1,80,2,40,right,74,1,981,-0.218279586,0,0,2,0,do not exclude
4,179,0,../static/images/invador1.png,2,20,2,10,right,74,1,1180,0.613062761,0,0,2,0,do not exclude
4,180,0,../static/images/invador2.png,4,20,8,2.5,right,70,-1,1297,1.101841929,0,0,2,0,do not exclude
4,181,0,../static/images/invador3.png,3,80,8,10,left,70,1,1427,1.644929895,1,0,2,0,do not exclude
4,182,0,../static/images/invador1.png,2,20,2,10,left,70,1,1182,0.62141796,0,0,2,0,do not exclude
4,183,0,../static/images/invador4.png,1,80,2,40,left,70,1,1107,0.30809798,0,0,2,0,do not exclude
4,184,0,../static/images/invador4.png,1,80,2,40,right,74,1,928,-0.439692372,0,0,2,0,do not exclude
4,185,0,../static/images/invador2.png,4,20,8,2.5,right,74,1,1309,1.151973126,1,0,2,0,do not exclude
4,186,0,../static/images/invador3.png,3,80,8,10,right,70,-1,1449,1.736837089,0,0,2,0,do not exclude
4,187,0,../static/images/invador4.png,1,80,2,40,left,74,-1,779,-1.062154732,2,0,2,0,do not exclude
4,188,0,../static/images/invador4.png,1,80,2,40,right,74,1,1193,0.667371557,0,0,2,0,do not exclude
4,189,0,../static/images/invador3.png,3,80,8,10,right,70,-1,967,-0.276765982,0,0,2,0,do not exclude
4,190,0,../static/images/invador1.png,2,20,2,10,left,74,-1,640,-1.642841095,2,0,2,0,do not exclude
4,191,0,../static/images/invador4.png,1,80,2,40,left,74,-1,682,-1.467381906,2,0,2,0,do not exclude
4,192,0,../static/images/invador4.png,1,80,2,40,right,74,1,957,-0.31854198,0,0,2,0,do not exclude
4,193,0,../static/images/invador2.png,4,20,8,2.5,right,70,-1,1385,1.469470706,0,0,2,0,do not exclude
4,194,0,../static/images/invador4.png,1,80,2,40,right,74,1,911,-0.510711567,0,0,2,0,do not exclude
4,195,0,../static/images/invador4.png,1,80,2,40,left,70,1,749,-1.187482724,1,0,2,0,do not exclude
4,196,0,../static/images/invador4.png,1,80,2,40,right,70,-1,605,-1.789057085,2,0,2,0,do not exclude
4,197,0,../static/images/invador2.png,4,20,8,2.5,left,74,-1,1228,0.813587548,0,0,2,0,do not exclude
4,198,0,../static/images/invador1.png,2,20,2,10,left,70,1,1090,0.237078785,1,0,2,0,do not exclude
4,199,0,../static/images/invador4.png,1,80,2,40,right,74,1,1178,0.604707561,0,0,2,0,do not exclude
4,200,0,../static/images/invador4.png,1,80,2,40,left,70,1,943,-0.377028376,0,0,2,0,do not exclude
4,201,0,../static/images/invador3.png,3,80,8,10,left,74,-1,1020,-0.055353196,0,0,2,0,do not exclude
4,202,0,../static/images/invador4.png,1,80,2,40,left,74,-1,786,-1.032911534,2,0,2,0,do not exclude
4,203,0,../static/images/invador1.png,2,20,2,10,right,74,1,1197,0.684081956,0,0,2,0,do not exclude
4,204,0,../static/images/invador2.png,4,20,8,2.5,right,70,-1,670,-1.517513103,2,0,2,0,do not exclude
4,205,0,../static/images/invador4.png,1,80,2,40,left,70,1,1026,-0.030287598,0,0,2,0,do not exclude
4,206,0,../static/images/invador4.png,1,80,2,40,right,74,1,1291,1.076776331,0,0,2,0,do not exclude
