subj,trial_index_actual,block,stimulus,stim_rank,reward_percent,delay_s,profitability,stim_left_right,key_press,approach_avoid,rt,rt_z,force_trial,missed,order_condition,reward_sum,delay_sum,Q_arithmetic,opp_cost_arithmetic,Q_estimate,opp_cost_estimate,dv,dv_abs,choice_log_reg,reward_factor,delay_factor,stim_rank_factor,reward_factor_1back,delay_factor_1back,reward_factor_2back,delay_factor_2back,reward_factor_3back,delay_factor_3back,choice_log_reg_1back,choice_reward_1back_interaction,choice_delay_1back_interaction,change_delay,change_reward,stim_rank_factor_1back
1,0,1,../static/images/invador2.png,4,20,8,2.5,left,74,1,1172,1.47500432853951,0,0,1,0,2,0,0,7.21403305137039,57.7122644109632,-37.7122644109632,37.7122644109632,0,-1,-1,-1,NaN,NaN,NaN,NaN,NaN,NaN,NaN,NaN,NaN,0,0,NaN
1,2,1,../static/images/invador1.png,3,80,8,10,left,70,2,743,-0.665547054358389,0,0,1,80,8,10,80,9.00454831275267,72.0363865020213,7.96361349797867,7.96361349797867,1,1,-1,0,1,1,-1,-1,NaN,NaN,1,1,1,2,0,1
1,4,1,../static/images/invador2.png,4,20,8,2.5,left,70,2,858,-0.0917395740943829,0,0,1,160,28,5.71428571428571,45.7142857142857,4.59621739804809,36.7697391843847,-16.7697391843847,16.7697391843847,1,-1,-1,-1,-1,-1,1,-1,1,1,NaN,NaN,NaN,10,80,-1
1,5,1,../static/images/invador4.png,2,20,2,10,left,70,2,818,-0.291324784620994,0,0,1,180,38,4.73684210526316,9.47368421052632,3.35081379710095,6.70162759420189,13.2983724057981,13.2983724057981,1,-1,1,0,-1,-1,-1,-1,1,-1,1,-1,-1,10,0,-1
1,6,1,../static/images/invador2.png,4,20,8,2.5,left,70,2,1076,0.995999823275646,0,0,1,200,42,4.76190476190476,38.0952380952381,3.52684970222457,28.2147976177966,-8.2147976177966,8.2147976177966,1,-1,-1,-1,-1,1,-1,-1,-1,-1,1,-1,1,10,20,0
1,7,1,../static/images/invador2.png,4,20,8,2.5,right,74,2,987,0.551922729853937,0,0,1,220,52,4.23076923076923,33.8461538461538,2.82924480218002,22.6339584174401,-2.63395841744014,2.63395841744014,1,-1,-1,-1,-1,-1,-1,1,-1,-1,1,-1,-1,4,20,-1
1,9,1,../static/images/invador4.png,2,20,2,10,right,74,2,1059,0.911176108801837,0,0,1,240,64,3.75,7.5,2.18439328957847,4.36878657915695,15.631213420843,15.631213420843,1,-1,1,0,1,-1,-1,-1,-1,-1,0,0,-0,10,20,0
1,11,1,../static/images/invador3.png,1,80,2,40,right,74,2,940,0.317410107485169,0,0,1,260,70,3.71428571428571,7.42857142857143,2.35660190670068,4.71320381340136,75.2867961865986,75.2867961865986,1,1,1,1,-1,-1,-1,1,1,-1,0,-0,-0,4,20,-1
1,13,1,../static/images/invador2.png,4,20,8,2.5,left,70,2,907,0.152752308800715,0,0,1,340,76,4.47368421052632,35.7894736842105,5.38568654381869,43.0854923505496,-23.0854923505496,23.0854923505496,1,-1,-1,-1,-1,-1,1,1,-1,-1,0,-0,-0,4,80,-1
1,15,1,../static/images/invador2.png,4,20,8,2.5,left,70,2,919,0.212627871958699,0,0,1,360,88,4.09090909090909,32.7272727272727,3.27866939553899,26.229355164312,-6.22935516431196,6.22935516431196,1,-1,-1,-1,-1,-1,-1,-1,-1,-1,0,-0,-0,10,20,-1
1,16,1,../static/images/invador2.png,4,20,8,2.5,left,74,1,949,0.362316779853657,0,0,1,380,98,3.87755102040816,31.0204081632653,2.70819836172486,21.6655868937989,-1.66558689379892,1.66558689379892,0,-1,-1,-1,-1,-1,-1,-1,-1,-1,1,-1,-1,2,0,-1
1,17,1,../static/images/invador4.png,2,20,2,10,left,70,2,873,-0.0168951201469038,0,0,1,380,100,3.8,7.6,2.37676794296233,4.75353588592465,15.2464641140753,15.2464641140753,1,-1,1,0,-1,-1,-1,-1,-1,-1,0,-0,-0,10,20,-1
1,18,1,../static/images/invador1.png,3,80,8,10,left,70,2,1016,0.69662200748573,0,0,1,400,104,3.84615384615385,30.7692307692308,2.824027977077,22.592223816616,57.407776183384,57.407776183384,1,1,-1,0,-1,1,-1,-1,-1,-1,1,-1,1,2,0,0
1,19,1,../static/images/invador3.png,1,80,2,40,left,70,2,907,0.152752308800715,0,0,1,480,114,4.21052631578947,8.42105263157895,5.81367439873036,11.6273487974607,68.3726512025393,68.3726512025393,1,1,1,1,1,-1,-1,1,-1,-1,1,1,-1,4,20,0
1,20,1,../static/images/invador2.png,4,20,8,2.5,left,74,1,763,-0.565754449095084,0,0,1,560,118,4.74576271186441,37.9661016949153,8.63114505648915,69.0491604519132,-49.0491604519132,49.0491604519132,0,-1,-1,-1,1,1,1,-1,-1,1,1,1,1,10,80,1
1,21,1,../static/images/invador2.png,4,20,8,2.5,left,74,1,1056,0.896207218012341,0,0,1,560,120,4.66666666666667,37.3333333333333,7.57486200835583,60.5988960668466,-40.5988960668466,40.5988960668466,0,-1,-1,-1,-1,-1,1,1,1,-1,0,-0,-0,4,80,-1
1,22,1,../static/images/invador4.png,2,20,2,10,right,74,2,772,-0.520847776726596,0,0,1,560,122,4.59016393442623,9.18032786885246,6.64784730995728,13.2956946199146,6.70430538008544,6.70430538008544,1,-1,1,0,-1,-1,-1,-1,1,1,0,-0,-0,2,0,-1
1,23,1,../static/images/invador2.png,4,20,8,2.5,left,74,1,868,-0.0418432714627302,0,0,1,580,126,4.6031746031746,36.8253968253968,5.90582064238043,47.2465651390434,-27.2465651390434,27.2465651390434,0,-1,-1,-1,-1,1,-1,-1,-1,-1,1,-1,1,2,0,0
1,24,1,../static/images/invador1.png,3,80,8,10,right,74,2,1015,0.691632377222565,0,0,1,580,128,4.53125,36.25,5.18306390627712,41.464511250217,38.535488749783,38.535488749783,1,1,-1,0,-1,-1,-1,1,-1,-1,0,-0,-0,4,20,-1
1,25,1,../static/images/invador3.png,1,80,2,40,left,74,1,961,0.42219234301164,0,0,1,660,138,4.78260869565217,9.56521739130435,6.96426086527566,13.9285217305513,66.0714782694487,66.0714782694487,0,1,1,1,1,-1,-1,-1,-1,1,1,1,-1,2,0,0
1,26,1,../static/images/invador2.png,4,20,8,2.5,right,70,1,1075,0.991010193012481,0,0,1,660,140,4.71428571428571,37.7142857142857,6.11197178351143,48.8957742680915,-28.8957742680915,28.8957742680915,0,-1,-1,-1,1,1,1,-1,-1,-1,0,0,0,10,80,1
1,27,1,../static/images/invador2.png,4,20,8,2.5,left,74,1,1015,0.691632377222565,0,0,1,660,142,4.64788732394366,37.1830985915493,5.36398618677551,42.9118894942041,-22.9118894942041,22.9118894942041,0,-1,-1,-1,-1,-1,1,1,1,-1,0,-0,-0,2,0,-1
1,28,1,../static/images/invador4.png,2,20,2,10,left,70,2,954,0.387264931169483,0,0,1,660,144,4.58333333333333,9.16666666666667,4.70753937207942,9.41507874415883,10.5849212558412,10.5849212558412,1,-1,1,0,-1,-1,-1,-1,1,1,0,-0,-0,2,0,-1
1,29,1,../static/images/invador2.png,4,20,8,2.5,left,70,2,907,0.152752308800715,0,0,1,680,148,4.59459459459459,36.7567567567568,4.50579356313906,36.0463485051125,-16.0463485051125,16.0463485051125,1,-1,-1,-1,-1,1,-1,-1,-1,-1,1,-1,1,2,0,0
1,32,1,../static/images/invador2.png,4,20,8,2.5,right,70,1,948,0.357327149590492,0,0,1,780,164,4.75609756097561,38.0487804878049,6.53025426233117,52.2420340986494,-32.2420340986494,32.2420340986494,0,-1,-1,-1,1,1,1,-1,-1,-1,1,1,1,2,0,1
1,33,1,../static/images/invador2.png,4,20,8,2.5,left,74,1,967,0.452130124590632,0,0,1,780,166,4.69879518072289,37.5903614457831,5.73107908543911,45.8486326835128,-25.8486326835128,25.8486326835128,0,-1,-1,-1,-1,-1,1,1,1,-1,0,-0,-0,4,80,-1
1,34,1,../static/images/invador2.png,4,20,8,2.5,right,70,1,1068,0.956082781170324,0,0,1,780,168,4.64285714285714,37.1428571428571,5.02970729225977,40.2376583380782,-20.2376583380782,20.2376583380782,0,-1,-1,-1,-1,-1,-1,-1,1,1,0,-0,-0,2,0,-1
1,35,1,../static/images/invador3.png,1,80,2,40,right,74,2,783,-0.465961843831778,0,0,1,780,170,4.58823529411765,9.17647058823529,4.41416966485166,8.82833932970333,71.1716606702967,71.1716606702967,1,1,1,1,-1,-1,-1,-1,-1,-1,0,-0,-0,2,0,-1
1,36,1,../static/images/invador2.png,4,20,8,2.5,right,70,1,1000,0.616787923275086,0,0,1,860,174,4.94252873563218,39.5402298850575,7.62133394006419,60.9706715205135,-40.9706715205135,40.9706715205135,0,-1,-1,-1,1,1,-1,-1,-1,-1,1,1,1,2,0,1
1,37,1,../static/images/invador4.png,2,20,2,10,left,70,2,893,0.0828974851164016,0,0,1,860,176,4.88636363636364,9.77272727272727,6.68863198773163,13.3772639754633,6.62273602453674,6.62273602453674,1,-1,1,0,-1,-1,1,1,-1,-1,0,-0,-0,4,80,-1
1,38,1,../static/images/invador1.png,3,80,8,10,right,74,2,777,-0.49589962541077,0,0,1,880,180,4.88888888888889,39.1111111111111,5.93524878220687,47.481990257655,32.518009742345,32.518009742345,1,1,-1,0,-1,1,-1,-1,1,1,1,-1,1,2,0,0
1,39,1,../static/images/invador2.png,4,20,8,2.5,left,74,1,1006,0.646725704854077,0,0,1,960,190,5.05263157894737,40.4210526315789,7.33112841819092,58.6490273455274,-38.6490273455274,38.6490273455274,0,-1,-1,-1,1,-1,-1,1,-1,-1,1,1,-1,4,20,0
1,40,1,../static/images/invador2.png,4,20,8,2.5,right,70,1,1025,0.741528679854217,0,0,1,960,192,5,40,6.43394193584794,51.4715354867835,-31.4715354867835,31.4715354867835,0,-1,-1,-1,-1,-1,1,-1,-1,1,0,-0,-0,10,80,-1
1,41,1,../static/images/invador2.png,4,20,8,2.5,right,70,1,931,0.272503435116682,0,0,1,960,194,4.94845360824742,39.5876288659794,5.64655350070621,45.1724280056497,-25.1724280056497,25.1724280056497,0,-1,-1,-1,-1,-1,-1,-1,1,-1,0,-0,-0,2,0,-1
1,42,1,../static/images/invador2.png,4,20,8,2.5,right,70,1,982,0.526974578538111,0,0,1,960,196,4.89795918367347,39.1836734693878,4.95552598302017,39.6442078641613,-19.6442078641613,19.6442078641613,0,-1,-1,-1,-1,-1,-1,-1,-1,-1,0,-0,-0,2,0,-1
1,43,1,../static/images/invador4.png,2,20,2,10,right,74,2,888,0.0579493338005753,0,0,1,960,198,4.84848484848485,9.6969696969697,4.34906669445648,8.69813338891296,11.301866611087,11.301866611087,1,-1,1,0,-1,-1,-1,-1,-1,-1,0,-0,-0,2,0,-1
1,44,1,../static/images/invador2.png,4,20,8,2.5,right,70,1,885,0.0429804430110794,0,0,1,980,202,4.85148514851485,38.8118811881188,4.24713799303962,33.9771039443169,-13.9771039443169,13.9771039443169,0,-1,-1,-1,-1,1,-1,-1,-1,-1,1,-1,1,2,0,0
1,45,1,../static/images/invador2.png,4,20,8,2.5,right,70,1,1032,0.776456091696374,0,0,1,980,204,4.80392156862745,38.4313725490196,3.72737151526992,29.8189721221593,-9.81897212215932,9.81897212215932,0,-1,-1,-1,-1,-1,-1,1,-1,-1,0,-0,-0,4,20,-1
1,48,1,../static/images/invador2.png,4,20,8,2.5,right,70,1,962,0.427181973274805,0,0,1,1060,226,4.69026548672566,37.5221238938053,5.26695835850179,42.1356668680143,-22.1356668680143,22.1356668680143,0,-1,-1,-1,1,-1,1,1,-1,-1,1,1,-1,10,0,0
1,49,1,../static/images/invador2.png,4,20,8,2.5,left,70,2,722,-0.77032928988486,0,0,1,1060,228,4.64912280701754,37.1929824561403,4.62238584895663,36.979086791653,-16.979086791653,16.979086791653,1,-1,-1,-1,-1,-1,1,-1,1,1,0,-0,-0,10,80,-1
1,50,1,../static/images/invador2.png,4,20,8,2.5,right,70,1,884,0.0379908127479142,0,0,1,1080,238,4.53781512605042,36.3025210084034,3.36357708955153,26.9086167164123,-6.90861671641226,6.90861671641226,0,-1,-1,-1,-1,-1,-1,-1,1,-1,1,-1,-1,2,0,-1
1,52,1,../static/images/invador3.png,1,80,2,40,left,70,2,933,0.282482695643012,0,0,1,1080,242,4.46280991735537,8.92561983471074,2.59068139398234,5.18136278796468,74.8186372120353,74.8186372120353,1,1,1,1,1,-1,-1,-1,-1,-1,0,0,-0,2,0,0
1,53,1,../static/images/invador2.png,4,20,8,2.5,right,70,1,886,0.0479700732742447,0,0,1,1160,246,4.71544715447155,37.7235772357724,6.3055979643158,50.4447837145264,-30.4447837145264,30.4447837145264,0,-1,-1,-1,1,1,1,-1,-1,-1,1,1,1,2,0,1
1,55,1,../static/images/invador4.png,2,20,2,10,right,74,2,885,0.0429804430110794,0,0,1,1160,250,4.64,9.28,4.8566733834734,9.7133467669468,10.2866532330532,10.2866532330532,1,-1,1,0,-1,-1,-1,-1,1,1,0,-0,-0,2,0,-1
1,57,1,../static/images/invador3.png,1,80,2,40,right,74,2,969,0.462109385116962,0,0,1,1180,256,4.609375,9.21875,4.04881114715289,8.09762229430578,71.9023777056942,71.9023777056942,1,1,1,1,1,-1,-1,1,-1,-1,0,0,-0,4,20,0
1,58,1,../static/images/invador2.png,4,20,8,2.5,right,70,1,975,0.492047166695954,0,0,1,1260,260,4.84615384615385,38.7692307692308,7.35770989955791,58.8616791964633,-38.8616791964633,38.8616791964633,0,-1,-1,-1,1,1,1,-1,-1,1,1,1,1,2,0,1
1,59,1,../static/images/invador4.png,2,20,2,10,left,70,2,1033,0.78144572195954,0,0,1,1260,262,4.80916030534351,9.61832061068702,6.45727036469658,12.9145407293932,7.08545927060684,7.08545927060684,1,-1,1,0,-1,-1,1,1,1,-1,0,-0,-0,4,80,-1
1,61,1,../static/images/invador2.png,4,20,8,2.5,left,74,1,1219,1.70951695090828,0,0,1,1280,268,4.77611940298507,38.2089552238806,5.06238192068584,40.4990553654867,-20.4990553654867,20.4990553654867,0,-1,-1,-1,-1,-1,-1,1,-1,-1,0,-0,-0,4,20,-1
1,62,1,../static/images/invador2.png,4,20,8,2.5,right,70,1,1046,0.846310915380688,0,0,1,1280,270,4.74074074074074,37.9259259259259,4.44284555894009,35.5427644715207,-15.5427644715207,15.5427644715207,0,-1,-1,-1,-1,-1,-1,-1,-1,1,0,-0,-0,2,0,-1
1,63,1,../static/images/invador2.png,4,20,8,2.5,right,70,1,963,0.432171603537971,0,0,1,1280,272,4.70588235294118,37.6470588235294,3.89912830952895,31.1930264762316,-11.1930264762316,11.1930264762316,0,-1,-1,-1,-1,-1,-1,-1,-1,-1,0,-0,-0,2,0,-1
1,65,1,../static/images/invador2.png,4,20,8,2.5,right,70,1,852,-0.121677355673375,0,0,1,1280,276,4.63768115942029,37.1014492753623,3.0031715924172,24.0253727393376,-4.02537273933756,4.02537273933756,0,-1,-1,-1,-1,-1,-1,-1,-1,-1,0,-0,-0,2,0,-1
1,66,1,../static/images/invador4.png,2,20,2,10,right,70,1,933,0.282482695643012,0,0,1,1280,278,4.60431654676259,9.20863309352518,2.63564222951755,5.27128445903511,14.7287155409649,14.7287155409649,0,-1,1,0,-1,-1,-1,-1,-1,-1,0,-0,-0,2,0,-1
1,68,1,../static/images/invador1.png,3,80,8,10,right,70,1,836,-0.201511439884019,0,0,1,1280,282,4.53900709219858,36.3120567375887,2.03001420910369,16.2401136728296,63.7598863271704,63.7598863271704,0,1,-1,0,1,1,-1,1,-1,-1,0,0,0,2,0,1
1,69,1,../static/images/invador2.png,4,20,8,2.5,right,70,1,1014,0.686642746959399,0,0,1,1280,284,4.50704225352113,36.056338028169,1.78158024321479,14.2526419457183,5.74735805428167,5.74735805428167,0,-1,-1,-1,1,-1,1,1,-1,1,0,0,-0,2,0,0
1,71,1,../static/images/invador1.png,3,80,8,10,right,74,2,805,-0.356189978042142,0,0,1,1280,288,4.44444444444444,35.5555555555556,1.37220187470075,10.977614997606,69.022385002394,69.022385002394,1,1,-1,0,-1,-1,-1,-1,1,-1,0,-0,-0,2,0,-1
1,72,1,../static/images/invador2.png,4,20,8,2.5,right,70,1,1036,0.796414612749035,0,0,1,1360,298,4.56375838926174,36.510067114094,5.10556671605605,40.8445337284484,-20.8445337284484,20.8445337284484,0,-1,-1,-1,1,-1,-1,-1,-1,-1,1,1,-1,2,0,0
1,73,1,../static/images/invador2.png,4,20,8,2.5,left,74,1,1125,1.24049170617074,0,0,1,1360,300,4.53333333333333,36.2666666666667,4.48074538146046,35.8459630516836,-15.8459630516836,15.8459630516836,0,-1,-1,-1,-1,-1,1,-1,-1,-1,0,-0,-0,10,80,-1
1,76,1,../static/images/invador2.png,4,20,8,2.5,right,74,2,1543,3.32615715617383,0,0,1,1360,314,4.3312101910828,34.6496815286624,1.79677806499992,14.3742245199994,5.62577548000063,5.62577548000063,1,-1,-1,-1,1,1,-1,1,-1,-1,NaN,NaN,NaN,2,0,1
1,78,1,../static/images/invador2.png,4,20,8,2.5,right,70,1,1068,0.956082781170324,0,0,1,1380,326,4.23312883435583,33.8650306748466,1.74244944932065,13.9395955945652,6.06040440543481,6.06040440543481,0,-1,-1,-1,-1,-1,-1,-1,1,1,0,-0,-0,10,20,-1
1,79,1,../static/images/invador4.png,2,20,2,10,left,70,2,1022,0.726559789064722,0,0,1,1380,328,4.20731707317073,8.41463414634146,1.52920777588094,3.05841555176187,16.9415844482381,16.9415844482381,1,-1,1,0,-1,-1,-1,-1,-1,-1,0,-0,-0,2,0,-1
1,80,1,../static/images/invador1.png,3,80,8,10,right,74,2,1161,1.42011839564469,0,0,1,1400,332,4.21686746987952,33.7349397590361,2.21247186166055,17.6997748932844,62.3002251067156,62.3002251067156,1,1,-1,0,-1,1,-1,-1,-1,-1,1,-1,1,2,0,0
1,81,1,../static/images/invador3.png,1,80,2,40,left,70,2,883,0.0330011824847489,0,0,1,1480,342,4.32748538011696,8.65497076023392,5.51539653817663,11.0307930763533,68.9692069236467,68.9692069236467,1,1,1,1,1,-1,-1,1,-1,-1,1,1,-1,4,20,0
1,82,1,../static/images/invador2.png,4,20,8,2.5,left,74,1,924,0.237576023274525,0,0,1,1560,346,4.50867052023121,36.0693641618497,8.41592299108332,67.3273839286666,-47.3273839286666,47.3273839286666,0,-1,-1,-1,1,1,1,-1,-1,1,1,1,1,10,80,1
1,83,1,../static/images/invador2.png,4,20,8,2.5,right,70,1,1178,1.5049421101185,0,0,1,1560,348,4.48275862068965,35.8620689655172,7.38597890699064,59.0878312559251,-39.0878312559251,39.0878312559251,0,-1,-1,-1,-1,-1,1,1,1,-1,0,-0,-0,4,80,-1
1,84,1,../static/images/invador2.png,4,20,8,2.5,left,70,2,1066,0.946103520643994,0,0,1,1560,350,4.45714285714286,35.6571428571429,6.48207979948358,51.8566383958687,-31.8566383958687,31.8566383958687,1,-1,-1,-1,-1,-1,-1,-1,1,1,0,-0,-0,2,0,-1
1,87,1,../static/images/invador4.png,2,20,2,10,left,74,1,1121,1.22053318511808,0,0,1,1620,380,4.26315789473684,8.52631578947368,2.66592979892631,5.33185959785262,14.6681404021474,14.6681404021474,0,-1,1,0,-1,-1,-1,-1,-1,-1,1,-1,-1,10,20,-1
1,88,1,../static/images/invador2.png,4,20,8,2.5,left,70,2,1104,1.13570947064427,0,0,1,1620,382,4.24083769633508,33.9267015706806,2.33967222409825,18.717377792786,1.28262220721398,1.28262220721398,1,-1,-1,-1,-1,1,-1,-1,-1,-1,0,-0,0,10,20,0
1,89,1,../static/images/invador1.png,3,80,8,10,right,74,2,896,0.0978663759058974,0,0,1,1640,392,4.18367346938776,33.469387755102,2.25021574933186,18.0017259946549,61.9982740053451,61.9982740053451,1,1,-1,0,-1,-1,-1,1,-1,-1,1,-1,-1,2,0,-1
1,90,1,../static/images/invador3.png,1,80,2,40,left,70,2,832,-0.22146996093668,0,0,1,1720,402,4.27860696517413,8.55721393034826,5.53380558647126,11.0676111729425,68.9323888270575,68.9323888270575,1,1,1,1,1,-1,-1,-1,-1,1,1,1,-1,10,20,0
1,92,1,../static/images/invador4.png,2,20,2,10,left,70,2,931,0.272503435116682,0,0,1,1820,416,4.375,8.75,5.2202998782813,10.4405997565626,9.55940024343741,9.55940024343741,1,-1,1,0,-1,-1,1,1,1,-1,1,-1,-1,4,80,-1
1,95,1,../static/images/invador2.png,4,20,8,2.5,left,74,1,1211,1.66959990880296,0,0,1,1840,424,4.33962264150943,34.7169811320755,3.75540091359549,30.0432073087639,-10.0432073087639,10.0432073087639,0,-1,-1,-1,-1,-1,1,1,-1,1,0,-0,-0,2,0,-1
1,96,1,../static/images/invador1.png,3,80,8,10,right,74,2,905,0.142773048274385,0,0,1,1840,426,4.31924882629108,34.5539906103286,3.29581341992998,26.3665073594398,53.6334926405602,53.6334926405602,1,1,-1,0,-1,-1,-1,-1,1,1,0,-0,-0,2,0,-1
1,97,1,../static/images/invador2.png,4,20,8,2.5,left,74,1,1021,0.721570158801556,0,0,1,1920,436,4.40366972477064,35.2293577981651,6.04378108720448,48.3502486976359,-28.3502486976359,28.3502486976359,0,-1,-1,-1,1,-1,-1,-1,-1,-1,1,1,-1,2,0,0
1,98,1,../static/images/invador2.png,4,20,8,2.5,right,70,1,971,0.472088645643293,0,0,1,1920,438,4.38356164383562,35.0684931506849,5.30414069566185,42.4331255652948,-22.4331255652948,22.4331255652948,0,-1,-1,-1,-1,-1,1,-1,-1,-1,0,-0,-0,10,80,-1
1,99,1,../static/images/invador2.png,4,20,8,2.5,left,74,1,995,0.591839771959259,0,0,1,1920,440,4.36363636363636,34.9090909090909,4.65501779654785,37.2401423723828,-17.2401423723828,17.2401423723828,0,-1,-1,-1,-1,-1,-1,-1,1,-1,0,-0,-0,2,0,-1
1,100,1,../static/images/invador4.png,2,20,2,10,right,74,2,1089,1.06086501669679,0,0,1,1920,442,4.34389140271493,8.68778280542986,4.08533482226443,8.17066964452885,11.8293303554711,11.8293303554711,1,-1,1,0,-1,-1,-1,-1,-1,-1,0,-0,-0,2,0,-1
1,101,1,../static/images/invador3.png,1,80,2,40,left,70,2,804,-0.361179608305308,0,0,1,1940,446,4.34977578475336,8.69955156950673,4.05684254790953,8.11368509581907,71.8863149041809,71.8863149041809,1,1,1,1,-1,1,-1,-1,-1,-1,1,-1,1,2,0,0
1,102,1,../static/images/invador2.png,4,20,8,2.5,right,70,1,994,0.586850141696094,0,0,1,2020,450,4.48888888888889,35.9111111111111,7.36350494802627,58.9080395842101,-38.9080395842101,38.9080395842101,0,-1,-1,-1,1,1,-1,1,-1,-1,1,1,1,4,20,1
1,103,1,../static/images/invador1.png,3,80,8,10,left,70,2,1199,1.60972434564497,0,0,1,2020,452,4.46902654867257,35.7522123893805,6.46235621277262,51.6988497021809,28.3011502978191,28.3011502978191,1,1,-1,0,-1,-1,1,1,-1,1,0,-0,-0,4,80,-1
1,105,1,../static/images/invador2.png,4,20,8,2.5,left,74,1,939,0.312420477222004,0,0,1,2120,472,4.49152542372881,35.9322033898305,4.81011966289709,38.4809573031767,-18.4809573031767,18.4809573031767,0,-1,-1,-1,-1,-1,1,-1,-1,-1,1,-1,-1,10,80,-1
1,106,1,../static/images/invador2.png,4,20,8,2.5,right,70,1,952,0.377285670643153,0,0,1,2120,474,4.47257383966245,35.7805907172996,4.22145525902509,33.7716420722007,-13.7716420722007,13.7716420722007,0,-1,-1,-1,-1,-1,-1,-1,1,-1,0,-0,-0,10,20,-1
1,108,1,../static/images/invador2.png,4,20,8,2.5,left,74,1,963,0.432171603537971,0,0,1,2200,486,4.52674897119342,36.2139917695473,6.24327404883786,49.9461923907029,-29.9461923907029,29.9461923907029,0,-1,-1,-1,1,-1,-1,-1,-1,-1,1,1,-1,2,0,0
1,109,1,../static/images/invador4.png,2,20,2,10,left,74,1,878,0.00805303116892254,0,0,1,2200,488,4.50819672131148,9.01639344262295,5.47921962738192,10.9584392547638,9.04156074523617,9.04156074523617,0,-1,1,0,-1,-1,1,-1,-1,-1,0,-0,-0,10,80,-1
1,110,1,../static/images/invador3.png,1,80,2,40,left,70,2,809,-0.336231456989481,0,0,1,2200,490,4.48979591836735,8.97959183673469,4.80867049728108,9.61734099456217,70.3826590054378,70.3826590054378,1,1,1,1,-1,1,-1,-1,1,-1,0,-0,0,2,0,0
1,111,1,../static/images/invador2.png,4,20,8,2.5,right,70,1,814,-0.311283305673655,0,0,1,2280,494,4.61538461538461,36.9230769230769,7.90598558602329,63.2478846881863,-43.2478846881863,43.2478846881863,0,-1,-1,-1,1,1,-1,1,-1,-1,1,1,1,2,0,1
1,112,1,../static/images/invador2.png,4,20,8,2.5,left,74,1,890,0.0679285943269058,0,0,1,2280,496,4.59677419354839,36.7741935483871,6.93844784929805,55.5075827943844,-35.5075827943844,35.5075827943844,0,-1,-1,-1,-1,-1,1,1,-1,1,0,-0,-0,4,80,-1
1,113,1,../static/images/invador2.png,4,20,8,2.5,right,70,1,935,0.292461956169343,0,0,1,2280,498,4.57831325301205,36.6265060240964,6.08931777494476,48.7145421995581,-28.7145421995581,28.7145421995581,0,-1,-1,-1,-1,-1,-1,-1,1,1,0,-0,-0,2,0,-1
1,114,1,../static/images/invador2.png,4,20,8,2.5,left,74,1,900,0.117824896958559,0,0,1,2280,500,4.56,36.48,5.34410458500593,42.7528366800474,-22.7528366800474,22.7528366800474,0,-1,-1,-1,-1,-1,-1,-1,-1,-1,0,-0,-0,2,0,-1
1,115,1,../static/images/invador3.png,1,80,2,40,right,74,2,783,-0.465961843831778,0,0,1,2280,502,4.54183266932271,9.08366533864542,4.69009088883368,9.38018177766735,70.6198182223326,70.6198182223326,1,1,1,1,-1,-1,-1,-1,-1,-1,0,-0,-0,2,0,-1
1,116,1,../static/images/invador4.png,2,20,2,10,left,70,2,1158,1.4051495048552,0,0,1,2360,506,4.66403162055336,9.32806324110672,7.82042459870198,15.640849197404,4.35915080259604,4.35915080259604,1,-1,1,0,1,1,-1,-1,-1,-1,1,1,1,2,0,1
1,117,1,../static/images/invador2.png,4,20,8,2.5,left,74,1,927,0.252544914064021,0,0,1,2380,510,4.66666666666667,37.3333333333333,6.7518925079326,54.0151400634608,-34.0151400634608,34.0151400634608,0,-1,-1,-1,-1,1,1,1,-1,-1,1,-1,1,4,80,0
1,118,1,../static/images/invador1.png,3,80,8,10,right,70,1,1067,0.951093150907159,0,0,1,2380,512,4.6484375,37.1875,5.92559315225376,47.4047452180301,32.5952547819699,32.5952547819699,0,1,-1,0,-1,-1,-1,1,1,1,0,-0,-0,4,20,-1
1,120,1,../static/images/invador4.png,2,20,2,10,right,70,1,6,-4.34290455831119,0,0,1,2380,516,4.61240310077519,9.22480620155039,4.56398754038956,9.12797508077912,10.8720249192209,10.8720249192209,0,-1,1,0,-1,-1,1,-1,-1,-1,0,-0,-0,2,0,-1
1,121,1,../static/images/invador2.png,4,20,8,2.5,left,70,2,1019,0.711590898275226,0,0,1,2380,518,4.59459459459459,36.7567567567568,4.00544488593832,32.0435590875065,-12.0435590875065,12.0435590875065,1,-1,-1,-1,-1,1,-1,-1,1,-1,0,-0,0,2,0,0
1,122,1,../static/images/invador1.png,3,80,8,10,left,70,2,1071,0.97105167195982,0,0,1,2400,528,4.54545454545455,36.3636363636364,3.06267284561025,24.501382764882,55.498617235118,55.498617235118,1,1,-1,0,-1,-1,-1,1,-1,-1,1,-1,-1,2,0,-1
1,123,1,../static/images/invador3.png,1,80,2,40,left,70,2,1138,1.30535689959189,0,0,1,2480,538,4.60966542750929,9.21933085501859,5.93007006386037,11.8601401277207,68.1398598722793,68.1398598722793,1,1,1,1,1,-1,-1,-1,-1,1,1,1,-1,10,20,0
1,125,1,../static/images/invador2.png,4,20,8,2.5,right,70,1,1110,1.16564725222327,0,0,1,2560,544,4.70588235294118,37.6470588235294,7.64856903500007,61.1885522800006,-41.1885522800006,41.1885522800006,0,-1,-1,-1,-1,-1,1,1,1,-1,0,-0,-0,4,80,-1
1,126,1,../static/images/invador2.png,4,20,8,2.5,right,70,1,1074,0.986020562749316,0,0,1,2560,546,4.68864468864469,37.5091575091575,6.71253404065434,53.7002723252347,-33.7002723252347,33.7002723252347,0,-1,-1,-1,-1,-1,-1,-1,1,1,0,-0,-0,2,0,-1
1,127,1,../static/images/invador2.png,4,20,8,2.5,left,74,1,827,-0.246418112252506,0,0,1,2560,548,4.67153284671533,37.3722627737226,5.8910513902347,47.1284111218776,-27.1284111218776,27.1284111218776,0,-1,-1,-1,-1,-1,-1,-1,-1,-1,0,-0,-0,2,0,-1
1,128,1,../static/images/invador1.png,3,80,8,10,left,74,1,855,-0.106708464883879,0,0,1,2560,550,4.65454545454545,37.2363636363636,5.17010212122562,41.360816969805,38.639183030195,38.639183030195,0,1,-1,0,-1,-1,-1,-1,-1,-1,0,-0,-0,2,0,-1
1,129,1,../static/images/invador2.png,4,20,8,2.5,right,70,1,770,-0.530827037252927,0,0,1,2560,552,4.63768115942029,37.1014492753623,4.53738291745521,36.2990633396417,-16.2990633396417,16.2990633396417,0,-1,-1,-1,1,-1,-1,-1,-1,-1,0,0,-0,2,0,0
1,130,1,../static/images/invador4.png,2,20,2,10,left,74,1,893,0.0828974851164016,0,0,1,2560,554,4.62093862815884,9.24187725631769,3.98209614759675,7.9641922951935,12.0358077048065,12.0358077048065,0,-1,1,0,-1,-1,1,-1,-1,-1,0,-0,-0,2,0,-1
1,131,1,../static/images/invador2.png,4,20,8,2.5,right,70,1,899,0.112835266695393,0,0,1,2560,556,4.60431654676259,36.8345323741007,3.494765598844,27.958124790752,-7.958124790752,7.958124790752,0,-1,-1,-1,-1,1,-1,-1,1,-1,0,-0,0,2,0,0
1,133,1,../static/images/invador3.png,1,80,2,40,right,74,2,736,-0.700474466200546,0,0,1,2560,560,4.57142857142857,9.14285714285714,2.69172490244957,5.38344980489914,74.6165501951009,74.6165501951009,1,1,1,1,1,1,-1,-1,-1,1,0,0,0,2,0,1
1,135,1,../static/images/invador1.png,3,80,8,10,right,74,2,1111,1.17063688248643,0,0,1,2660,574,4.63414634146341,37.0731707317073,4.22009979942406,33.7607983953925,46.2392016046075,46.2392016046075,1,1,-1,0,-1,-1,1,1,1,1,1,-1,-1,4,80,-1
1,136,1,../static/images/invador4.png,2,20,2,10,left,74,1,937,0.302441216695674,0,0,1,2740,584,4.69178082191781,9.38356164383562,6.4945887185315,12.989177437063,7.01082256293699,7.01082256293699,0,-1,1,0,1,-1,-1,-1,1,1,1,1,-1,10,20,0
1,137,1,../static/images/invador2.png,4,20,8,2.5,left,74,1,1076,0.995999823275646,0,0,1,2740,586,4.67576791808874,37.4061433447099,5.69977830541892,45.5982264433514,-25.5982264433514,25.5982264433514,0,-1,-1,-1,-1,1,1,-1,-1,-1,0,-0,0,10,80,0
1,138,1,../static/images/invador2.png,4,20,8,2.5,right,70,1,1008,0.656704965380408,0,0,1,2740,588,4.65986394557823,37.2789115646259,5.00223711444964,40.0178969155971,-20.0178969155971,20.0178969155971,0,-1,-1,-1,-1,-1,-1,1,1,-1,0,-0,-0,2,0,-1
1,139,1,../static/images/invador2.png,4,20,8,2.5,left,74,1,856,-0.101718834620713,0,0,1,2740,590,4.64406779661017,37.1525423728814,4.39006129859262,35.120490388741,-15.120490388741,15.120490388741,0,-1,-1,-1,-1,-1,-1,-1,-1,1,0,-0,-0,2,0,-1
1,140,1,../static/images/invador2.png,4,20,8,2.5,right,70,1,833,-0.216480330673515,0,0,1,2740,592,4.62837837837838,37.027027027027,3.85280380846584,30.8224304677267,-10.8224304677267,10.8224304677267,0,-1,-1,-1,-1,-1,-1,-1,-1,-1,0,-0,-0,2,0,-1
1,141,1,../static/images/invador2.png,4,20,8,2.5,left,74,1,827,-0.246418112252506,0,0,1,2740,594,4.61279461279461,36.9023569023569,3.38129610884651,27.0503688707721,-7.05036887077207,7.05036887077207,0,-1,-1,-1,-1,-1,-1,-1,-1,-1,0,-0,-0,2,0,-1
1,142,1,../static/images/invador4.png,2,20,2,10,right,74,2,1009,0.661694595643573,0,0,1,2740,596,4.59731543624161,9.19463087248322,2.96749171358745,5.93498342717489,14.0650165728251,14.0650165728251,1,-1,1,0,-1,-1,-1,-1,-1,-1,0,-0,-0,2,0,-1
1,143,1,../static/images/invador3.png,1,80,2,40,left,70,2,805,-0.356189978042142,0,0,1,2760,600,4.6,9.2,3.25026407037014,6.50052814074028,73.4994718592597,73.4994718592597,1,1,1,1,-1,1,-1,-1,-1,-1,1,-1,1,2,0,0
1,144,1,../static/images/invador2.png,4,20,8,2.5,right,70,1,748,-0.640598903042563,0,0,1,2840,604,4.70198675496689,37.6158940397351,6.78151912606262,54.252153008501,-34.252153008501,34.252153008501,0,-1,-1,-1,1,1,-1,1,-1,-1,1,1,1,4,20,1
1,146,1,../static/images/invador2.png,4,20,8,2.5,left,74,1,927,0.252544914064021,0,0,1,2840,608,4.67105263157895,37.3684210526316,5.22323554807191,41.7858843845753,-21.7858843845753,21.7858843845753,0,-1,-1,-1,1,-1,-1,-1,1,1,0,0,-0,2,0,0
1,147,1,../static/images/invador2.png,4,20,8,2.5,left,74,1,1303,2.12864589301416,0,0,1,2840,610,4.65573770491803,37.2459016393443,4.58401385387877,36.6721108310302,-16.6721108310302,16.6721108310302,0,-1,-1,-1,-1,-1,1,-1,-1,-1,0,-0,-0,2,0,-1
1,149,1,../static/images/invador3.png,1,80,2,40,left,70,2,931,0.272503435116682,0,0,1,2840,614,4.62540716612378,9.25081433224756,3.5306814991371,7.0613629982742,72.9386370017258,72.9386370017258,1,1,1,1,1,-1,-1,-1,-1,-1,0,0,-0,2,0,0
1,151,1,../static/images/invador2.png,4,20,8,2.5,left,74,1,872,-0.0218847504100691,0,0,1,2940,622,4.72668810289389,37.8135048231511,6.14826591541951,49.1861273233561,-29.1861273233561,29.1861273233561,0,-1,-1,-1,-1,1,1,1,1,-1,1,-1,1,4,80,0
1,152,1,../static/images/invador2.png,4,20,8,2.5,right,70,1,976,0.497036796959119,0,0,1,2940,624,4.71153846153846,37.6923076923077,5.39583862803533,43.1667090242826,-23.1667090242826,23.1667090242826,0,-1,-1,-1,-1,-1,-1,1,1,1,0,-0,-0,4,20,-1
1,153,1,../static/images/invador2.png,4,20,8,2.5,left,74,1,970,0.467099015380127,0,0,1,2940,626,4.69648562300319,37.5718849840256,4.73549369860194,37.8839495888155,-17.8839495888155,17.8839495888155,0,-1,-1,-1,-1,-1,-1,-1,-1,1,0,-0,-0,2,0,-1
1,154,1,../static/images/invador2.png,4,20,8,2.5,right,70,1,819,-0.286335154357828,0,0,1,2940,628,4.68152866242038,37.4522292993631,4.15596205064119,33.2476964051295,-13.2476964051295,13.2476964051295,0,-1,-1,-1,-1,-1,-1,-1,-1,-1,0,-0,-0,2,0,-1
1,155,1,../static/images/invador3.png,1,80,2,40,left,70,2,876,-0.001926229357408,0,0,1,2940,630,4.66666666666667,9.33333333333333,3.64735372184509,7.29470744369018,72.7052925563098,72.7052925563098,1,1,1,1,-1,-1,-1,-1,-1,-1,0,-0,-0,2,0,-1
1,157,1,../static/images/invador4.png,2,20,2,10,left,74,1,989,0.561901990380268,0,0,1,3020,636,4.74842767295597,9.49685534591195,6.20304927226467,12.4060985445293,7.59390145547066,7.59390145547066,0,-1,1,0,-1,-1,1,1,-1,-1,0,-0,-0,4,80,-1
1,158,1,../static/images/invador2.png,4,20,8,2.5,right,70,1,865,-0.056812162252226,0,0,1,3020,638,4.73354231974922,37.8683385579937,5.44391757535236,43.5513406028189,-23.5513406028189,23.5513406028189,0,-1,-1,-1,-1,1,-1,-1,1,1,0,-0,0,2,0,0
1,159,1,../static/images/invador2.png,4,20,8,2.5,right,70,1,841,-0.176563288568193,0,0,1,3020,640,4.71875,37.75,4.77768872476011,38.2215097980809,-18.2215097980809,18.2215097980809,0,-1,-1,-1,-1,-1,-1,1,-1,-1,0,-0,-0,2,0,-1
1,160,1,../static/images/invador1.png,3,80,8,10,left,70,2,815,-0.30629367541049,0,0,1,3020,642,4.70404984423676,37.6323987538941,4.19299323230889,33.5439458584711,46.4560541415289,46.4560541415289,1,1,-1,0,-1,-1,-1,-1,-1,1,0,-0,-0,2,0,-1
1,161,1,../static/images/invador2.png,4,20,8,2.5,right,70,1,913,0.182690090379707,0,0,1,3100,652,4.75460122699386,38.0368098159509,6.48136787314667,51.8509429851734,-31.8509429851734,31.8509429851734,0,-1,-1,-1,1,-1,-1,-1,-1,-1,1,1,-1,2,0,0
1,163,1,../static/images/invador4.png,2,20,2,10,left,70,2,1038,0.806393873275366,0,0,1,3100,656,4.72560975609756,9.45121951219512,4.99205420582608,9.98410841165216,10.0158915883478,10.0158915883478,1,-1,1,0,1,-1,-1,-1,1,-1,0,0,-0,2,0,0
1,164,1,../static/images/invador2.png,4,20,8,2.5,right,70,1,735,-0.705464096463711,0,0,1,3120,660,4.72727272727273,37.8181818181818,4.71108493154259,37.6886794523408,-17.6886794523408,17.6886794523408,0,-1,-1,-1,-1,1,1,-1,-1,-1,1,-1,1,2,0,0
1,165,1,../static/images/invador2.png,4,20,8,2.5,right,70,1,777,-0.49589962541077,0,0,1,3120,662,4.71299093655589,37.7039274924471,4.13454043843811,33.0763235075049,-13.0763235075049,13.0763235075049,0,-1,-1,-1,-1,-1,-1,1,1,-1,0,-0,-0,4,20,-1
1,167,1,../static/images/invador3.png,1,80,2,40,left,70,2,842,-0.171573658305027,0,0,1,3140,674,4.65875370919881,9.31750741839763,2.87884948879937,5.75769897759874,74.2423010224013,74.2423010224013,1,1,1,1,-1,-1,-1,-1,-1,-1,1,-1,-1,2,0,-1
1,168,1,../static/images/invador2.png,4,20,8,2.5,left,74,1,1079,1.01096871406514,0,0,1,3220,678,4.74926253687316,37.9941002949853,6.51352533926562,52.1082027141249,-32.1082027141249,32.1082027141249,0,-1,-1,-1,1,1,-1,-1,-1,-1,1,1,1,10,20,1
1,169,1,../static/images/invador2.png,4,20,8,2.5,left,74,1,978,0.50701605748545,0,0,1,3220,680,4.73529411764706,37.8823529411765,5.71639745479327,45.7311796383462,-25.7311796383462,25.7311796383462,0,-1,-1,-1,-1,-1,1,1,-1,-1,0,-0,-0,4,80,-1
1,170,1,../static/images/invador2.png,4,20,8,2.5,left,74,1,921,0.222607132485029,0,0,1,3220,682,4.72140762463343,37.7712609970675,5.01682240555332,40.1345792444265,-20.1345792444265,20.1345792444265,0,-1,-1,-1,-1,-1,-1,-1,1,1,0,-0,-0,2,0,-1
1,171,1,../static/images/invador4.png,2,20,2,10,right,70,1,783,-0.465961843831778,0,0,1,3220,684,4.70760233918129,9.41520467836257,4.40286163582934,8.80572327165867,11.1942767283413,11.1942767283413,0,-1,1,0,-1,-1,-1,-1,-1,-1,0,-0,-0,2,0,-1
1,172,1,../static/images/invador2.png,4,20,8,2.5,right,70,1,969,0.462109385116962,0,0,1,3220,686,4.69387755102041,37.5510204081633,3.86403763521698,30.9123010817358,-10.9123010817358,10.9123010817358,0,-1,-1,-1,-1,1,-1,-1,-1,-1,0,-0,0,2,0,0
1,173,1,../static/images/invador1.png,3,80,8,10,right,70,1,818,-0.291324784620994,0,0,1,3220,688,4.68023255813953,37.4418604651163,3.39115513530345,27.1292410824276,52.8707589175724,52.8707589175724,0,1,-1,0,-1,-1,-1,1,-1,-1,0,-0,-0,2,0,-1
1,174,1,../static/images/invador3.png,1,80,2,40,left,70,2,965,0.442150864064301,0,0,1,3220,690,4.66666666666667,9.33333333333333,2.97614418837026,5.95228837674052,74.0477116232595,74.0477116232595,1,1,1,1,1,-1,-1,-1,-1,1,0,0,-0,2,0,0
1,176,1,../static/images/invador4.png,2,20,2,10,left,74,1,918,0.207638241695533,0,0,1,3380,698,4.84240687679083,9.68481375358166,9.18677655522337,18.3735531104467,1.62644688955326,1.62644688955326,0,-1,1,0,1,1,1,1,1,-1,1,1,1,4,80,1
1,177,1,../static/images/invador2.png,4,20,8,2.5,right,70,1,971,0.472088645643293,0,0,1,3380,700,4.82857142857143,38.6285714285714,8.06249509792409,64.4999607833927,-44.4999607833927,44.4999607833927,0,-1,-1,-1,-1,1,1,1,1,1,0,-0,0,4,80,0
1,178,1,../static/images/invador2.png,4,20,8,2.5,left,74,1,947,0.352337519327326,0,0,1,3380,702,4.81481481481481,38.5185185185185,7.07580366337423,56.6064293069938,-36.6064293069938,36.6064293069938,0,-1,-1,-1,-1,-1,-1,1,1,1,0,-0,-0,2,0,-1
1,179,1,../static/images/invador2.png,4,20,8,2.5,left,74,1,871,-0.0268743806732344,0,0,1,3380,704,4.80113636363636,38.4090909090909,6.20986392853886,49.6789114283108,-29.6789114283108,29.6789114283108,0,-1,-1,-1,-1,-1,-1,-1,-1,1,0,-0,-0,2,0,-1
1,180,1,../static/images/invador2.png,4,20,8,2.5,left,74,1,880,0.0180322916952531,0,0,1,3380,706,4.78753541076487,38.300283286119,5.44989825121558,43.5991860097247,-23.5991860097247,23.5991860097247,0,-1,-1,-1,-1,-1,-1,-1,-1,-1,0,-0,-0,2,0,-1
1,181,1,../static/images/invador1.png,3,80,8,10,left,70,2,934,0.287472325906178,0,0,1,3380,708,4.77401129943503,38.1920903954802,4.78293748307481,38.2634998645985,41.7365001354015,41.7365001354015,1,1,-1,0,-1,-1,-1,-1,-1,-1,0,-0,-0,2,0,-1
1,182,1,../static/images/invador2.png,4,20,8,2.5,left,74,1,897,0.102856006169063,0,0,1,3460,718,4.81894150417827,38.5515320334262,6.76910485186137,54.152838814891,-34.152838814891,34.152838814891,0,-1,-1,-1,1,-1,-1,-1,-1,-1,1,1,-1,2,0,0
1,183,1,../static/images/invador4.png,2,20,2,10,left,74,1,823,-0.266376633305167,0,0,1,3460,720,4.80555555555556,9.61111111111111,5.94069904252064,11.8813980850413,8.11860191495872,8.11860191495872,0,-1,1,0,-1,-1,1,-1,-1,-1,0,-0,-0,10,80,-1
1,184,1,../static/images/invador1.png,3,80,8,10,right,74,2,1055,0.891217587749176,0,0,1,3460,722,4.79224376731302,38.3379501385042,5.21367387359955,41.7093909887964,38.2906090112036,38.2906090112036,1,1,-1,0,-1,1,-1,-1,1,-1,0,-0,0,2,0,0
1,186,1,../static/images/invador2.png,4,20,8,2.5,left,74,1,988,0.556912360117102,0,0,1,3540,734,4.82288828337875,38.58310626703,6.12507427487652,49.0005941990122,-29.0005941990122,29.0005941990122,0,-1,-1,-1,-1,-1,1,-1,-1,1,0,-0,-0,10,80,-1
1,187,1,../static/images/invador2.png,4,20,8,2.5,right,70,1,1029,0.761487200906878,0,0,1,3540,736,4.80978260869565,38.4782608695652,5.3754851899097,43.0038815192776,-23.0038815192776,23.0038815192776,0,-1,-1,-1,-1,-1,-1,-1,1,-1,0,-0,-0,2,0,-1
1,189,1,../static/images/invador1.png,3,80,8,10,left,74,1,925,0.24256565353769,0,0,1,3620,742,4.87870619946092,39.0296495956873,7.84029622432628,62.7223697946103,17.2776302053897,17.2776302053897,0,1,-1,0,1,1,-1,-1,-1,-1,1,1,1,2,0,1
1,192,1,../static/images/invador2.png,4,20,8,2.5,right,70,1,868,-0.0418432714627302,0,0,1,3640,756,4.81481481481481,38.5185185185185,3.91864653810498,31.3491723048398,-11.3491723048398,11.3491723048398,0,-1,-1,-1,-1,1,-1,-1,1,-1,0,-0,0,10,20,0
1,194,1,../static/images/invador2.png,4,20,8,2.5,left,74,1,867,-0.0468329017258954,0,0,1,3640,760,4.78947368421053,38.3157894736842,3.01820484727331,24.1456387781865,-4.14563877818646,4.14563877818646,0,-1,-1,-1,1,1,-1,-1,-1,1,0,0,0,2,0,1
1,195,1,../static/images/invador2.png,4,20,8,2.5,left,74,1,902,0.127804157484889,0,0,1,3640,762,4.77690288713911,38.2152230971129,2.64883570852019,21.1906856681615,-1.19068566816152,1.19068566816152,0,-1,-1,-1,-1,-1,1,1,-1,-1,0,-0,-0,2,0,-1
1,196,1,../static/images/invador1.png,3,80,8,10,left,70,2,1069,0.961072411433489,0,0,1,3640,764,4.76439790575916,38.1151832460733,2.32467011543975,18.597360923518,61.402639076482,61.402639076482,1,1,-1,0,-1,-1,-1,-1,1,1,0,-0,-0,2,0,-1
1,197,1,../static/images/invador4.png,2,20,2,10,right,70,1,874,-0.0119054898837385,0,0,1,3720,774,4.8062015503876,9.61240310077519,5.5701196522973,11.1402393045946,8.85976069540541,8.85976069540541,0,-1,1,0,1,-1,-1,-1,-1,-1,1,1,-1,2,0,0
1,199,1,../static/images/invador2.png,4,20,8,2.5,left,70,2,1226,1.74444436275044,0,0,1,3720,778,4.78149100257069,38.2519280205656,4.29019611005437,34.321568880435,-14.321568880435,14.321568880435,1,-1,-1,-1,-1,-1,-1,1,1,-1,0,-0,-0,2,0,-1
1,200,1,../static/images/invador3.png,1,80,2,40,right,74,2,808,-0.341221087252646,0,0,1,3740,788,4.74619289340102,9.49238578680203,3.20155623468657,6.40311246937315,73.5968875306268,73.5968875306268,1,1,1,1,-1,-1,-1,-1,-1,1,1,-1,-1,2,0,-1
1,201,1,../static/images/invador2.png,4,20,8,2.5,right,70,1,987,0.551922729853937,0,0,1,3820,792,4.82323232323232,38.5858585858586,6.74637404027649,53.9709923222119,-33.9709923222119,33.9709923222119,0,-1,-1,-1,1,1,-1,-1,-1,-1,1,1,1,10,20,1
1,203,1,../static/images/invador2.png,4,20,8,2.5,right,70,1,916,0.197658981169203,0,0,1,3840,804,4.77611940298507,38.2089552238806,3.99683589024364,31.9746871219491,-11.9746871219491,11.9746871219491,0,-1,-1,-1,-1,-1,-1,-1,1,1,1,-1,-1,2,0,-1
1,204,1,../static/images/invador1.png,3,80,8,10,right,74,2,1034,0.786435352222705,0,0,1,3840,806,4.76426799007444,38.1141439205955,3.50770148578114,28.0616118862492,51.9383881137508,51.9383881137508,1,1,-1,0,-1,-1,-1,-1,-1,-1,0,-0,-0,10,20,-1
1,206,1,../static/images/invador4.png,2,20,2,10,left,70,2,1038,0.806393873275366,0,0,1,4000,820,4.8780487804878,9.75609756097561,8.87174705669376,17.7434941133875,2.25650588661249,2.25650588661249,1,-1,1,0,1,1,1,-1,-1,-1,1,1,1,10,80,1
1,207,1,../static/images/invador2.png,4,20,8,2.5,left,74,1,1034,0.786435352222705,0,0,1,4020,824,4.87864077669903,39.0291262135922,7.5104730824227,60.0837846593816,-40.0837846593816,40.0837846593816,0,-1,-1,-1,-1,1,1,1,1,-1,1,-1,1,4,80,0
1,209,1,../static/images/invador2.png,4,20,8,2.5,left,70,2,0,-4.37284233989019,0,0,1,4020,828,4.85507246376812,38.8405797101449,5.78468765739867,46.2775012591893,-26.2775012591893,26.2775012591893,1,-1,-1,-1,-1,-1,-1,-1,-1,1,0,-0,-0,2,0,-1
1,210,1,../static/images/invador2.png,4,20,8,2.5,left,74,1,1020,0.716580528538391,0,0,1,4040,838,4.82100238663485,38.5680190930788,3.93047338573808,31.4437870859046,-11.4437870859046,11.4437870859046,0,-1,-1,-1,-1,-1,-1,-1,-1,-1,1,-1,-1,2,0,-1
1,213,-1,../static/images/invador2.png,4,20,8,2.5,left,74,1,987,0.551922729853937,0,0,1,4120,846,4.86997635933806,38.9598108747045,6.62064980068459,52.9651984054767,-32.9651984054767,32.9651984054767,0,-1,-1,-1,1,1,-1,1,-1,-1,1,1,1,2,0,1
1,214,-1,../static/images/invador3.png,1,80,2,40,right,74,2,1055,0.891217587749176,0,0,1,4120,848,4.85849056603774,9.71698113207547,5.81041198098387,11.6208239619677,68.3791760380323,68.3791760380323,1,1,1,1,-1,-1,1,1,-1,1,0,-0,-0,4,80,-1
1,215,-1,../static/images/invador1.png,3,80,8,10,right,70,1,867,-0.0468329017258954,0,0,1,4200,852,4.92957746478873,39.4366197183099,8.62879106251751,69.0303285001401,10.9696714998599,10.9696714998599,0,1,-1,0,1,1,-1,-1,1,1,1,1,1,2,0,1
1,216,-1,../static/images/invador3.png,1,80,2,40,right,74,2,1061,0.921155369328167,0,0,1,4200,854,4.91803278688525,9.83606557377049,7.5727960971254,15.1455921942508,64.8544078057492,64.8544078057492,1,1,1,1,1,-1,1,1,-1,-1,0,0,-0,4,80,0
1,218,-1,../static/images/invador4.png,2,20,2,10,left,74,1,1198,1.60473471538181,0,0,1,4360,862,5.05800464037123,10.1160092807425,11.5799444502814,23.1598889005628,-3.15988890056279,3.15988890056279,0,-1,1,0,1,1,1,1,1,-1,1,1,1,4,80,1
1,219,-1,../static/images/invador3.png,1,80,2,40,right,74,2,753,-0.615650751726736,0,0,1,4360,864,5.0462962962963,10.0925925925926,10.1627861310661,20.3255722621322,59.6744277378678,59.6744277378678,1,1,1,1,-1,1,1,1,1,1,0,-0,0,4,80,0
1,220,-1,../static/images/invador3.png,1,80,2,40,left,70,2,1062,0.926144999591332,0,0,1,4440,868,5.11520737327189,10.2304147465438,11.7692418900133,23.5384837800267,56.4615162199733,56.4615162199733,1,1,1,1,1,1,-1,1,1,1,1,1,1,2,0,1
1,222,-1,../static/images/invador2.png,4,20,8,2.5,right,70,1,1092,1.07583390748629,0,0,1,4600,876,5.25114155251142,42.0091324200913,13.7647519023668,110.118015218934,-90.1180152189342,90.1180152189342,0,-1,-1,-1,1,1,1,1,1,1,1,1,1,4,80,1
1,223,-1,../static/images/invador1.png,3,80,8,10,left,70,2,1159,1.41013913511836,0,0,1,4600,878,5.23917995444191,41.9134396355353,12.0802159571274,96.6417276570194,-16.6417276570194,16.6417276570194,1,1,-1,0,-1,-1,1,1,1,1,0,-0,-0,4,80,-1
1,224,-1,../static/images/invador3.png,1,80,2,40,left,70,2,1082,1.02593760485464,0,0,1,4680,888,5.27027027027027,10.5405405405405,10.3282493951597,20.6564987903194,59.3435012096806,59.3435012096806,1,1,1,1,1,-1,-1,-1,1,1,1,1,-1,2,0,0
1,226,-1,../static/images/invador3.png,1,80,2,40,right,74,2,988,0.556912360117102,0,0,1,4840,902,5.36585365853659,10.7317073170732,10.2348068924377,20.4696137848754,59.5303862151246,59.5303862151246,1,1,1,1,1,-1,1,1,1,-1,1,1,-1,4,80,0
1,228,-1,../static/images/invador3.png,1,80,2,40,right,74,2,966,0.447140494327466,0,0,1,4920,908,5.41850220264317,10.8370044052863,10.3745240932575,20.749048186515,59.250951813485,59.250951813485,1,1,1,1,-1,-1,1,1,1,-1,0,-0,-0,4,80,-1
1,229,-1,../static/images/invador4.png,2,20,2,10,right,70,1,947,0.352337519327326,0,0,1,5000,912,5.48245614035088,10.9649122807018,11.9220211860129,23.8440423720258,-3.84404237202579,3.84404237202579,0,-1,1,0,1,1,-1,-1,1,1,1,1,1,2,0,1
1,230,-1,../static/images/invador3.png,1,80,2,40,right,74,2,968,0.457119754853797,0,0,1,5000,914,5.47045951859956,10.9409190371991,10.4629993765249,20.9259987530499,59.0740012469501,59.0740012469501,1,1,1,1,-1,1,1,1,-1,-1,0,-0,0,4,80,0
1,231,-1,../static/images/invador3.png,1,80,2,40,left,70,2,1061,0.921155369328167,0,0,1,5080,918,5.53376906318083,11.0675381263617,11.9858604302895,23.971720860579,56.028279139421,56.028279139421,1,1,1,1,1,1,-1,1,1,1,1,1,1,2,0,1
1,233,-1,../static/images/invador3.png,1,80,2,40,right,74,2,960,0.417202712748475,0,0,1,5180,932,5.55793991416309,11.1158798283262,7.49094117282977,14.9818823456595,65.0181176543405,65.0181176543405,1,1,1,1,-1,-1,1,1,1,1,1,-1,-1,4,80,-1
1,234,-1,../static/images/invador3.png,1,80,2,40,right,74,2,946,0.347347889064161,0,0,1,5260,936,5.61965811965812,11.2393162393162,9.84137507050397,19.6827501410079,60.3172498589921,60.3172498589921,1,1,1,1,1,1,-1,-1,1,1,1,1,1,10,20,1
1,235,-1,../static/images/invador3.png,1,80,2,40,right,74,2,952,0.377285670643153,0,0,1,5340,940,5.68085106382979,11.3617021276596,11.5373280893376,23.0746561786751,56.9253438213249,56.9253438213249,1,1,1,1,1,1,1,1,-1,-1,1,1,1,4,80,1
1,238,-1,../static/images/invador4.png,2,20,2,10,left,74,1,1100,1.11575094959161,0,0,1,5520,958,5.76200417536534,11.5240083507307,9.46816279233333,18.9363255846667,1.06367441533333,1.06367441533333,0,-1,1,0,1,-1,-1,1,1,1,1,1,-1,4,20,0
1,239,-1,../static/images/invador3.png,1,80,2,40,right,74,2,801,-0.376148499094803,0,0,1,5520,960,5.75,11.5,8.30944517270658,16.6188903454132,63.3811096545869,63.3811096545869,1,1,1,1,-1,1,1,-1,-1,1,0,-0,0,10,80,0
1,240,-1,../static/images/invador3.png,1,80,2,40,left,70,2,1013,0.681653116696234,0,0,1,5600,964,5.80912863070539,11.6182572614108,10.4319657401212,20.8639314802424,59.1360685197576,59.1360685197576,1,1,1,1,1,1,-1,1,1,-1,1,1,1,2,0,1
1,242,-1,../static/images/invador2.png,4,20,8,2.5,left,74,1,993,0.581860511432929,0,0,1,5680,970,5.85567010309278,46.8453608247423,10.4993740386839,83.9949923094714,-63.9949923094714,63.9949923094714,0,-1,-1,-1,1,1,1,1,1,1,0,0,0,4,80,1
1,243,-1,../static/images/invador1.png,3,80,8,10,left,74,1,1206,1.64465175748713,0,0,1,5680,972,5.84362139917695,46.7489711934156,9.21445636663821,73.7156509331056,6.28434906689435,6.28434906689435,0,1,-1,0,-1,-1,1,1,1,1,0,-0,-0,2,0,-1
1,244,-1,../static/images/invador3.png,1,80,2,40,left,70,2,889,0.0629389640637405,0,0,1,5680,974,5.83162217659138,11.6632443531828,8.08678744274189,16.1735748854838,63.8264251145162,63.8264251145162,1,1,1,1,1,-1,-1,-1,1,1,0,0,-0,2,0,0
1,245,-1,../static/images/invador3.png,1,80,2,40,right,74,2,1068,0.956082781170324,0,0,1,5760,978,5.88957055214724,11.7791411042945,10.2713072975784,20.5426145951567,59.4573854048433,59.4573854048433,1,1,1,1,1,1,1,-1,-1,-1,1,1,1,2,0,1
1,246,-1,../static/images/invador2.png,4,20,8,2.5,right,70,1,999,0.61179829301192,0,0,1,5840,982,5.94704684317719,47.5763747454175,11.8475452195118,94.780361756094,-74.780361756094,74.780361756094,0,-1,-1,-1,1,1,1,1,1,-1,1,1,1,4,80,1
1,247,-1,../static/images/invador3.png,1,80,2,40,right,74,2,811,-0.326252196463151,0,0,1,5840,984,5.9349593495935,11.869918699187,10.3976378091439,20.7952756182879,59.2047243817121,59.2047243817121,1,1,1,1,-1,-1,1,1,1,1,0,-0,-0,4,80,-1
1,248,-1,../static/images/invador3.png,1,80,2,40,right,74,2,879,0.0130426614320878,0,0,1,5920,988,5.9919028340081,11.9838056680162,11.9386988625359,23.8773977250718,56.1226022749282,56.1226022749282,1,1,1,1,1,1,-1,-1,1,1,1,1,1,2,0,1
1,249,-1,../static/images/invador1.png,3,80,8,10,left,70,2,1212,1.67458953906612,0,0,1,6000,992,6.04838709677419,48.3870967741936,13.0506497871261,104.405198297009,-24.4051982970086,24.4051982970086,1,1,-1,0,1,1,1,1,-1,-1,1,1,1,4,80,1
1,250,-1,../static/images/invador4.png,2,20,2,10,left,74,1,1125,1.24049170617074,0,0,1,6080,1002,6.06786427145709,12.1357285429142,10.8015647939009,21.6031295878018,-1.60312958780179,1.60312958780179,0,-1,1,0,1,-1,1,1,1,1,1,1,-1,4,80,0
1,251,-1,../static/images/invador3.png,1,80,2,40,left,70,2,856,-0.101718834620713,0,0,1,6080,1004,6.05577689243028,12.1115537848606,9.4796648941265,18.959329788253,61.040670211747,61.040670211747,1,1,1,1,-1,1,1,-1,1,1,0,-0,0,10,80,0
1,252,-1,../static/images/invador2.png,4,20,8,2.5,left,74,1,1070,0.966062041696655,0,0,1,6160,1008,6.11111111111111,48.8888888888889,11.276336505538,90.2106920443038,-70.2106920443038,70.2106920443038,0,-1,-1,-1,1,1,-1,1,1,-1,1,1,1,2,0,1
1,253,-1,../static/images/invador1.png,3,80,8,10,right,70,1,1010,0.666684225906738,0,0,1,6160,1010,6.0990099009901,48.7920792079208,9.89633385028291,79.1706708022633,0.829329197736726,0.829329197736726,0,1,-1,0,-1,-1,1,1,-1,1,0,-0,-0,4,80,-1
1,255,-1,../static/images/invador3.png,1,80,2,40,left,70,2,791,-0.426044801726456,0,0,1,6160,1014,6.07495069033531,12.1499013806706,7.62231615092369,15.2446323018474,64.7553676981526,64.7553676981526,1,1,1,1,1,1,1,-1,-1,-1,0,0,0,2,0,1
1,256,-1,../static/images/invador3.png,1,80,2,40,left,70,2,996,0.596829402222425,0,0,1,6240,1018,6.12966601178782,12.2593320235756,9.93616854285733,19.8723370857147,60.1276629142853,60.1276629142853,1,1,1,1,1,1,1,1,1,-1,1,1,1,2,0,1
1,258,-1,../static/images/invador3.png,1,80,2,40,left,70,2,896,0.0978663759058974,0,0,1,6340,1026,6.17933723196881,12.3586744639376,9.48317276708775,18.9663455341755,61.0336544658245,61.0336544658245,1,1,1,1,-1,1,1,1,1,1,1,-1,1,4,80,0
1,259,-1,../static/images/invador3.png,1,80,2,40,right,74,2,946,0.347347889064161,0,0,1,6420,1030,6.23300970873786,12.4660194174757,11.2788676074525,22.557735214905,57.442264785095,57.442264785095,1,1,1,1,1,1,-1,1,1,1,1,1,1,4,20,1
1,260,-1,../static/images/invador1.png,3,80,8,10,right,70,1,972,0.477078275906458,0,0,1,6500,1034,6.2862669245648,50.2901353965184,12.5745492636922,100.596394109537,-20.5963941095375,20.5963941095375,0,1,-1,0,1,1,1,1,-1,1,1,1,1,4,80,1
1,261,-1,../static/images/invador3.png,1,80,2,40,right,74,2,860,-0.0817603135680523,0,0,1,6500,1036,6.27413127413127,12.5482625482625,11.0356708022337,22.0713416044673,57.9286583955327,57.9286583955327,1,1,1,1,1,-1,1,1,1,1,0,0,-0,4,80,0
1,266,-1,../static/images/invador3.png,1,80,2,40,right,74,2,988,0.556912360117102,0,0,1,6780,1062,6.38418079096045,12.7683615819209,7.38749218803888,14.7749843760778,65.2250156239222,65.2250156239222,1,1,1,1,-1,-1,1,1,1,1,1,-1,-1,4,80,-1
1,267,-1,../static/images/invador3.png,1,80,2,40,left,70,2,1048,0.856290175907019,0,0,1,6860,1066,6.43527204502814,12.8705440900563,9.76673156820213,19.5334631364043,60.4665368635957,60.4665368635957,1,1,1,1,1,1,-1,-1,1,1,1,1,1,10,20,1
1,268,-1,../static/images/invador1.png,3,80,8,10,right,70,1,1072,0.976041302222985,0,0,1,6940,1070,6.48598130841121,51.8878504672897,11.4834691515515,91.8677532124118,-11.8677532124118,11.8677532124118,0,1,-1,0,1,1,1,1,-1,-1,1,1,1,4,80,1
1,269,-1,../static/images/invador3.png,1,80,2,40,left,70,2,895,0.0928767456427322,0,0,1,6940,1072,6.47388059701493,12.9477611940299,10.0781175186964,20.1562350373929,59.8437649626071,59.8437649626071,1,1,1,1,1,-1,1,1,1,1,0,0,-0,4,80,0
1,270,-1,../static/images/invador3.png,1,80,2,40,right,74,2,970,0.467099015380127,0,0,1,7020,1076,6.52416356877323,13.0483271375465,11.7081493449769,23.4162986899539,56.5837013100461,56.5837013100461,1,1,1,1,1,1,1,-1,1,1,1,1,1,2,0,1
1,271,-1,../static/images/invador2.png,4,20,8,2.5,left,74,1,1251,1.86918511932957,0,0,1,7100,1080,6.57407407407407,52.5925925925926,12.8842970338401,103.074376270721,-83.074376270721,83.074376270721,0,-1,-1,-1,1,1,1,1,1,-1,1,1,1,4,80,1
1,272,-1,../static/images/invador4.png,2,20,2,10,right,70,1,1023,0.731549419327887,0,0,1,7100,1082,6.56192236598891,13.1238447319778,11.3075115140871,22.6150230281742,-2.61502302817425,2.61502302817425,0,-1,1,0,-1,-1,1,1,1,1,0,-0,-0,4,80,-1
1,273,-1,../static/images/invador3.png,1,80,2,40,right,74,2,860,-0.0817603135680523,0,0,1,7100,1084,6.54981549815498,13.09963099631,9.92369364858586,19.8473872971717,60.1526127028283,60.1526127028283,1,1,1,1,-1,1,-1,-1,1,1,0,-0,0,2,0,0
1,274,-1,../static/images/invador3.png,1,80,2,40,right,74,2,977,0.502026427222284,0,0,1,7180,1088,6.59926470588235,13.1985294117647,11.5967249696932,23.1934499393865,56.8065500606135,56.8065500606135,1,1,1,1,1,1,-1,1,-1,-1,1,1,1,2,0,1
1,275,-1,../static/images/invador2.png,4,20,8,2.5,left,74,1,994,0.586850141696094,0,0,1,7260,1092,6.64835164835165,53.1868131868132,12.8038988972148,102.431191177718,-82.4311911777182,82.4311911777182,0,-1,-1,-1,1,1,1,1,-1,1,1,1,1,4,80,1
1,277,-1,../static/images/invador4.png,2,20,2,10,right,70,1,1060,0.916165739065002,0,0,1,7340,1104,6.64855072463768,13.2971014492754,9.91695956689855,19.8339191337971,0.166080866202904,0.166080866202904,0,-1,1,0,1,-1,-1,-1,1,1,1,1,-1,2,0,0
1,280,-1,../static/images/invador3.png,1,80,2,40,left,70,2,874,-0.0119054898837385,0,0,1,7500,1114,6.73249551166966,13.4649910233393,12.168531276657,24.3370625533139,55.6629374466861,55.6629374466861,1,1,1,1,1,1,1,1,-1,1,1,1,1,4,80,1
1,283,-1,../static/images/invador1.png,3,80,8,10,right,70,1,1107,1.15067836143377,0,0,1,7660,1124,6.81494661921708,54.5195729537367,12.8055738381091,102.444590704873,-22.4445907048729,22.4445907048729,0,1,-1,0,1,1,1,1,1,1,1,1,1,2,0,1
1,284,-1,../static/images/invador4.png,2,20,2,10,left,74,1,1090,1.06585464695996,0,0,1,7660,1126,6.80284191829485,13.6056838365897,11.2384224951196,22.4768449902392,-2.47684499023922,2.47684499023922,0,-1,1,0,1,-1,1,1,1,1,0,0,-0,4,80,0
1,285,-1,../static/images/invador2.png,4,20,8,2.5,left,74,1,1134,1.28539837853923,0,0,1,7660,1128,6.79078014184397,54.3262411347518,9.86305977190479,78.9044781752383,-58.9044781752383,58.9044781752383,0,-1,-1,-1,-1,1,1,-1,1,1,0,-0,0,2,0,0
1,288,-1,../static/images/invador3.png,1,80,2,40,right,74,2,1027,0.751507940380548,0,0,1,7740,1136,6.81338028169014,13.6267605633803,9.91767651959484,19.8353530391897,60.1646469608103,60.1646469608103,1,1,1,1,1,1,1,1,-1,-1,1,1,1,2,0,1
1,289,-1,../static/images/invador4.png,2,20,2,10,right,70,1,946,0.347347889064161,0,0,1,7820,1140,6.85964912280702,13.719298245614,11.5923833168235,23.1847666336469,-3.18476663364692,3.18476663364692,0,-1,1,0,1,1,1,1,1,1,1,1,1,4,80,1
1,290,-1,../static/images/invador3.png,1,80,2,40,left,70,2,818,-0.291324784620994,0,0,1,7820,1142,6.8476357267951,13.6952714535902,10.1737027240534,20.3474054481069,59.6525945518931,59.6525945518931,1,1,1,1,-1,1,1,1,1,1,0,-0,0,4,80,0
1,291,-1,../static/images/invador1.png,3,80,8,10,left,74,1,969,0.462109385116962,0,0,1,7900,1146,6.8935427574171,55.1483420593368,11.7771187457933,94.2169499663462,-14.2169499663462,14.2169499663462,0,1,-1,0,1,1,-1,1,1,1,1,1,1,2,0,1
1,292,-1,../static/images/invador3.png,1,80,2,40,left,70,2,950,0.367306410116822,0,0,1,7900,1148,6.8815331010453,13.7630662020906,10.3358301559692,20.6716603119383,59.3283396880617,59.3283396880617,1,1,1,1,1,-1,1,1,-1,1,0,0,-0,4,80,0
1,293,-1,../static/images/invador2.png,4,20,8,2.5,right,70,1,892,0.0779078548532363,0,0,1,7980,1152,6.92708333333333,55.4166666666667,11.894101617707,95.1528129416558,-75.1528129416558,75.1528129416558,0,-1,-1,-1,1,1,1,-1,1,1,1,1,1,2,0,1
1,295,-1,../static/images/invador4.png,2,20,2,10,left,74,1,914,0.187679720642872,0,0,1,8060,1158,6.96027633851468,13.9205526770294,11.9681804903817,23.9363609807635,-3.9363609807635,3.9363609807635,0,-1,1,0,1,1,-1,-1,1,1,1,1,1,2,0,1
1,296,-1,../static/images/invador2.png,4,20,8,2.5,left,74,1,1138,1.30535689959189,0,0,1,8060,1160,6.94827586206897,55.5862068965517,10.503509686421,84.0280774913676,-64.0280774913676,64.0280774913676,0,-1,-1,-1,-1,1,1,1,-1,-1,0,-0,0,4,80,0
1,297,-1,../static/images/invador1.png,3,80,8,10,left,74,1,882,0.0280115522215836,0,0,1,8060,1162,6.93631669535284,55.4905335628227,9.21808589212042,73.7446871369633,6.25531286303666,6.25531286303666,0,1,-1,0,-1,-1,-1,1,1,1,0,-0,-0,2,0,-1
1,298,-1,../static/images/invador3.png,1,80,2,40,right,74,2,908,0.157741939063881,0,0,1,8060,1164,6.92439862542955,13.8487972508591,8.08997278541701,16.179945570834,63.820054429166,63.820054429166,1,1,1,1,1,-1,-1,-1,-1,1,0,0,-0,2,0,0
1,299,-1,../static/images/invador3.png,1,80,2,40,left,70,2,936,0.297451586432508,0,0,1,8140,1168,6.96917808219178,13.9383561643836,10.2736056781162,20.5472113562324,59.4527886437676,59.4527886437676,1,1,1,1,1,1,1,-1,-1,-1,1,1,1,2,0,1
1,300,-1,../static/images/invador3.png,1,80,2,40,right,74,2,918,0.207638241695533,0,0,1,8220,1172,7.01365187713311,14.0273037542662,11.8492036134855,23.698407226971,56.301592773029,56.301592773029,1,1,1,1,1,1,1,1,1,-1,1,1,1,4,80,1
1,301,-1,../static/images/invador1.png,3,80,8,10,right,70,1,879,0.0130426614320878,0,0,1,8300,1176,7.0578231292517,56.4625850340136,12.9860745876497,103.888596701198,-23.8885967011978,23.8885967011978,0,1,-1,0,1,1,1,1,1,1,1,1,1,4,80,1
1,302,-1,../static/images/invador3.png,1,80,2,40,right,74,2,959,0.41221308248531,0,0,1,8300,1178,7.04584040747029,14.0916808149406,11.3968334893998,22.7936669787996,57.2063330212004,57.2063330212004,1,1,1,1,1,-1,1,1,1,1,0,0,-0,4,80,0
1,304,-1,../static/images/invador2.png,4,20,8,2.5,left,74,1,1019,0.711590898275226,0,0,1,8380,1184,7.0777027027027,56.6216216216216,11.1103721615505,88.8829772924041,-68.8829772924041,68.8829772924041,0,-1,-1,-1,1,1,1,1,1,-1,0,0,0,4,80,1
1,305,-1,../static/images/invador3.png,1,80,2,40,right,74,2,997,0.60181903248559,0,0,1,8380,1186,7.06576728499157,14.1315345699831,9.7506802903225,19.501360580645,60.498639419355,60.498639419355,1,1,1,1,-1,-1,1,1,1,1,0,-0,-0,2,0,-1
1,306,-1,../static/images/invador4.png,2,20,2,10,right,70,1,898,0.107845636432228,0,0,1,8460,1190,7.10924369747899,14.218487394958,11.4718873694801,22.9437747389602,-2.94377473896015,2.94377473896015,0,-1,1,0,1,1,-1,-1,1,1,1,1,1,2,0,1
1,307,-1,../static/images/invador3.png,1,80,2,40,right,74,2,1129,1.26045022722341,0,0,1,8460,1192,7.09731543624161,14.1946308724832,10.0679531198331,20.1359062396661,59.8640937603339,59.8640937603339,1,1,1,1,-1,1,1,1,-1,-1,0,-0,0,4,80,0
1,309,-1,../static/images/invador1.png,3,80,8,10,left,74,1,1117,1.20057466406542,0,0,1,8540,1198,7.12854757929883,57.0283806343907,10.2688646990754,82.150917592603,-2.15091759260297,2.15091759260297,0,1,-1,0,-1,-1,1,1,-1,1,0,-0,-0,4,80,-1
1,310,-1,../static/images/invador3.png,1,80,2,40,left,70,2,953,0.382275300906318,0,0,1,8540,1200,7.11666666666667,14.2333333333333,9.01215685391489,18.0243137078298,61.9756862921702,61.9756862921702,1,1,1,1,1,-1,-1,-1,1,1,0,0,-0,2,0,0
1,311,-1,../static/images/invador3.png,1,80,2,40,left,70,2,1082,1.02593760485464,0,0,1,8620,1204,7.15946843853821,14.3189368770764,10.9390065883212,21.8780131766425,58.1219868233575,58.1219868233575,1,1,1,1,1,1,1,-1,-1,-1,1,1,1,2,0,1
1,312,-1,../static/images/invador4.png,2,20,2,10,left,74,1,957,0.402233821958979,0,0,1,8700,1208,7.20198675496689,14.4039735099338,12.3293229155061,24.6586458310122,-4.65864583101216,4.65864583101216,0,-1,1,0,1,1,1,1,1,-1,1,1,1,4,80,1
1,313,-1,../static/images/invador3.png,1,80,2,40,right,74,2,965,0.442150864064301,0,0,1,8700,1210,7.1900826446281,14.3801652892562,10.8204553544379,21.6409107088757,58.3590892911243,58.3590892911243,1,1,1,1,-1,1,1,1,1,1,0,-0,0,4,80,0
1,314,-1,../static/images/invador3.png,1,80,2,40,left,70,2,844,-0.161594397778697,0,0,1,8780,1214,7.23228995057661,14.4645799011532,12.2437824018205,24.4875648036411,55.5124351963589,55.5124351963589,1,1,1,1,1,1,-1,1,1,1,1,1,1,2,0,1
1,315,-1,../static/images/invador2.png,4,20,8,2.5,right,70,1,1132,1.2754191180129,0,0,1,8860,1218,7.27422003284072,58.1937602627258,13.2707824826076,106.166259860861,-86.166259860861,86.166259860861,0,-1,-1,-1,1,1,1,1,-1,1,1,1,1,4,80,1
1,317,-1,../static/images/invador3.png,1,80,2,40,left,70,2,868,-0.0418432714627302,0,0,1,8940,1224,7.30392156862745,14.6078431372549,12.8399573995691,25.6799147991382,54.3200852008618,54.3200852008618,1,1,1,1,1,1,-1,-1,1,1,1,1,1,2,0,1
1,318,-1,../static/images/invador4.png,2,20,2,10,left,74,1,892,0.0779078548532363,0,0,1,9020,1228,7.34527687296417,14.6905537459283,13.7009519028944,27.4019038057887,-7.40190380578873,7.40190380578873,0,-1,1,0,1,1,1,1,-1,-1,1,1,1,4,80,1
1,321,-1,../static/images/invador1.png,3,80,8,10,right,70,1,894,0.0878871153795669,0,0,1,9180,1238,7.41518578352181,59.3214862681745,13.8975038703034,111.180030962427,-31.1800309624269,31.1800309624269,0,1,-1,0,1,1,1,1,-1,1,1,1,1,4,80,1
1,322,-1,../static/images/invador3.png,1,80,2,40,left,70,2,873,-0.0168951201469038,0,0,1,9180,1240,7.40322580645161,14.8064516129032,12.196721685148,24.393443370296,55.606556629704,55.606556629704,1,1,1,1,1,-1,1,1,1,1,0,0,-0,4,80,0
1,325,-1,../static/images/invador2.png,4,20,8,2.5,right,70,1,989,0.561901990380268,0,0,1,9360,1252,7.47603833865815,59.8083067092652,12.1280716394069,97.024573115255,-77.024573115255,77.024573115255,0,-1,-1,-1,1,1,-1,1,1,1,1,1,1,4,20,1
1,327,-1,../static/images/invador3.png,1,80,2,40,left,70,2,933,0.282482695643012,0,0,1,9360,1256,7.45222929936306,14.9044585987261,9.34123663723893,18.6824732744779,61.3175267255221,61.3175267255221,1,1,1,1,1,-1,-1,-1,1,1,0,0,-0,2,0,0
1,329,-1,../static/images/invador3.png,1,80,2,40,right,74,2,1046,0.846310915380688,0,0,1,9520,1264,7.53164556962025,15.0632911392405,12.5006526546285,25.0013053092571,54.9986946907429,54.9986946907429,1,1,1,1,1,1,1,1,1,-1,1,1,1,4,80,1
1,330,-1,../static/images/invador3.png,1,80,2,40,left,70,2,1066,0.946103520643994,0,0,1,9600,1268,7.57097791798107,15.1419558359621,13.4561269337446,26.9122538674893,53.0877461325107,53.0877461325107,1,1,1,1,1,1,1,1,1,1,1,1,1,4,80,1
1,331,-1,../static/images/invador4.png,2,20,2,10,right,70,1,1116,1.19558503380226,0,0,1,9680,1272,7.61006289308176,15.2201257861635,14.1455483591624,28.2910967183249,-8.29109671832486,8.29109671832486,0,-1,1,0,1,1,1,1,1,1,1,1,1,4,80,1
1,334,-1,../static/images/invador2.png,4,20,8,2.5,right,74,2,1022,0.726559789064722,0,0,1,9680,1286,7.52721617418351,60.2177293934681,5.67236226238199,45.3788980990559,-25.3788980990559,25.3788980990559,1,-1,-1,-1,1,1,1,-1,-1,1,0,0,0,10,0,1
1,335,-1,../static/images/invador3.png,1,80,2,40,left,70,2,775,-0.5058788859371,0,0,1,9700,1296,7.48456790123457,14.9691358024691,3.87568826027398,7.75137652054796,72.248623479452,72.248623479452,1,1,1,1,-1,-1,1,1,1,-1,1,-1,-1,2,0,-1
1,336,-1,../static/images/invador4.png,2,20,2,10,right,70,1,946,0.347347889064161,0,0,1,9780,1300,7.52307692307692,15.0461538461538,7.23279326909151,14.465586538183,5.53441346181698,5.53441346181698,0,-1,1,0,1,1,-1,-1,1,1,1,1,1,10,20,1
1,337,-1,../static/images/invador3.png,1,80,2,40,left,70,2,941,0.322399737748335,0,0,1,9780,1302,7.51152073732719,15.0230414746544,6.34764108235468,12.6952821647094,67.3047178352906,67.3047178352906,1,1,1,1,-1,1,1,1,-1,-1,0,-0,0,4,80,0
1,338,-1,../static/images/invador3.png,1,80,2,40,left,70,2,887,0.05295970353741,0,0,1,9860,1306,7.54977029096478,15.0995405819296,9.01642813547525,18.0328562709505,61.9671437290495,61.9671437290495,1,1,1,1,1,1,-1,1,1,1,1,1,1,2,0,1
1,340,-1,../static/images/invador3.png,1,80,2,40,right,74,2,1141,1.32032579038139,0,0,1,9940,1312,7.57621951219512,15.1524390243902,9.60299127541673,19.2059825508335,60.7940174491665,60.7940174491665,1,1,1,1,1,-1,1,1,1,1,0,0,-0,4,80,0
1,341,-1,../static/images/invador3.png,1,80,2,40,left,70,2,897,0.102856006169063,0,0,1,10020,1316,7.61398176291793,15.2279635258359,11.365322521634,22.7306450432679,57.2693549567321,57.2693549567321,1,1,1,1,1,1,1,-1,1,1,1,1,1,2,0,1
1,343,-1,../static/images/invador3.png,1,80,2,40,right,74,2,1004,0.636746444327747,0,0,1,10120,1330,7.60902255639098,15.218045112782,7.27255818720218,14.5451163744044,65.4548836255956,65.4548836255956,1,1,1,1,-1,-1,1,1,1,1,1,-1,-1,4,80,-1
1,344,-1,../static/images/invador4.png,2,20,2,10,right,70,1,929,0.262524174590351,0,0,1,10200,1334,7.64617691154423,15.2923538230885,9.68380106508161,19.3676021301632,0.632397869836772,0.632397869836772,0,-1,1,0,1,1,-1,-1,1,1,1,1,1,10,20,1
1,345,-1,../static/images/invador3.png,1,80,2,40,left,70,2,1032,0.776456091696374,0,0,1,10200,1336,7.63473053892216,15.2694610778443,8.49869354579009,16.9973870915802,63.0026129084198,63.0026129084198,1,1,1,1,-1,1,1,1,-1,-1,0,-0,0,4,80,0
1,346,-1,../static/images/invador2.png,4,20,8,2.5,left,74,1,1117,1.20057466406542,0,0,1,10280,1340,7.67164179104478,61.3731343283582,10.5685176975951,84.5481415807605,-64.5481415807605,64.5481415807605,0,-1,-1,-1,1,1,-1,1,1,1,1,1,1,2,0,1
1,347,-1,../static/images/invador3.png,1,80,2,40,left,70,2,923,0.23258639301136,0,0,1,10280,1342,7.6602086438152,15.3204172876304,9.27513819640434,18.5502763928087,61.4497236071913,61.4497236071913,1,1,1,1,-1,-1,1,1,-1,1,0,-0,-0,4,80,-1
1,348,-1,../static/images/invador1.png,3,80,8,10,left,74,1,1059,0.911176108801837,0,0,1,10360,1346,7.69687964338782,61.5750371471025,11.1287604895619,89.0300839164949,-9.03008391649495,9.03008391649495,0,1,-1,0,1,1,-1,-1,1,1,1,1,1,2,0,1
1,349,-1,../static/images/invador3.png,1,80,2,40,right,74,2,849,-0.13664624646287,0,0,1,10360,1348,7.68545994065282,15.3709198813056,9.76681824726086,19.5336364945217,60.4663635054783,60.4663635054783,1,1,1,1,1,-1,1,1,-1,-1,0,0,-0,4,80,0
1,350,-1,../static/images/invador2.png,4,20,8,2.5,left,74,1,976,0.497036796959119,0,0,1,10440,1352,7.72189349112426,61.7751479289941,11.4835316947319,91.8682535578552,-71.8682535578552,71.8682535578552,0,-1,-1,-1,1,1,1,-1,1,1,1,1,1,2,0,1
1,351,-1,../static/images/invador3.png,1,80,2,40,right,74,2,1082,1.02593760485464,0,0,1,10440,1354,7.71048744460857,15.4209748892171,10.078172407817,20.1563448156339,59.8436551843661,59.8436551843661,1,1,1,1,-1,-1,1,1,1,-1,0,-0,-0,4,80,-1
1,353,-1,../static/images/invador3.png,1,80,2,40,right,74,2,844,-0.161594397778697,0,0,1,10600,1368,7.74853801169591,15.4970760233918,10.1467984752711,20.2935969505421,59.7064030494579,59.7064030494579,1,1,1,1,1,-1,1,1,-1,-1,1,1,-1,4,80,0
1,354,-1,../static/images/invador3.png,1,80,2,40,right,74,2,803,-0.366169238568473,0,0,1,10680,1372,7.78425655976676,15.5685131195335,11.7577060143878,23.5154120287756,56.4845879712244,56.4845879712244,1,1,1,1,1,1,1,-1,1,1,1,1,1,10,80,1
1,356,-1,../static/images/invador3.png,1,80,2,40,left,70,2,963,0.432171603537971,0,0,1,10780,1380,7.81159420289855,15.6231884057971,10.4315249771407,20.8630499542813,59.1369500457187,59.1369500457187,1,1,1,1,-1,1,1,1,1,1,1,-1,1,4,80,0
1,358,-1,../static/images/invador3.png,1,80,2,40,left,70,2,833,-0.216480330673515,0,0,1,10940,1388,7.88184438040346,15.7636887608069,13.0682925593251,26.1365851186501,53.8634148813499,53.8634148813499,1,1,1,1,1,1,1,1,-1,1,1,1,1,4,80,1
1,359,-1,../static/images/invador3.png,1,80,2,40,left,70,2,812,-0.321262566199985,0,0,1,11020,1392,7.91666666666667,15.8333333333333,13.8657068887194,27.7314137774388,52.2685862225612,52.2685862225612,1,1,1,1,1,1,1,1,1,1,1,1,1,4,80,1
1,360,-1,../static/images/invador2.png,4,20,8,2.5,right,70,1,1132,1.2754191180129,0,0,1,11100,1396,7.9512893982808,63.6103151862464,14.4410803295703,115.528642636562,-95.5286426365625,95.5286426365625,0,-1,-1,-1,1,1,1,1,1,1,1,1,1,4,80,1
1,361,-1,../static/images/invador1.png,3,80,8,10,right,74,2,1137,1.30036726932873,0,0,1,11100,1398,7.93991416309013,63.519313304721,12.6737750358899,101.390200287119,-21.3902002871193,21.3902002871193,1,1,-1,0,-1,-1,1,1,1,1,0,-0,-0,4,80,-1
1,364,-1,../static/images/invador3.png,1,80,2,40,left,74,1,936,0.297451586432508,0,0,1,11280,1416,7.96610169491525,15.9322033898305,9.838026166836,19.676052333672,60.323947666328,60.323947666328,0,1,1,1,-1,1,1,1,1,-1,1,-1,1,4,80,0
1,365,-1,../static/images/invador3.png,1,80,2,40,right,74,2,1022,0.726559789064722,0,0,1,11280,1418,7.95486600846262,15.9097320169252,8.63404451676419,17.2680890335284,62.7319109664716,62.7319109664716,1,1,1,1,1,1,-1,1,1,1,0,0,0,4,20,1
1,366,-1,../static/images/invador3.png,1,80,2,40,right,74,2,955,0.392254561432648,0,0,1,11360,1422,7.9887482419128,15.9774964838256,10.6661800432806,21.3323600865611,58.6676399134389,58.6676399134389,1,1,1,1,1,1,1,1,-1,1,1,1,1,2,0,1
1,367,-1,../static/images/invador2.png,4,20,8,2.5,right,70,1,988,0.556912360117102,0,0,1,11440,1426,8.02244039270687,64.179523141655,12.1324652190878,97.0597217527021,-77.0597217527021,77.0597217527021,0,-1,-1,-1,1,1,1,1,1,1,1,1,1,4,80,1
1,368,-1,../static/images/invador1.png,3,80,8,10,right,70,1,1075,0.991010193012481,0,0,1,11440,1428,8.01120448179272,64.0896358543417,10.6476891831023,85.1815134648183,-5.18151346481832,5.18151346481832,0,1,-1,0,-1,-1,1,1,1,1,0,-0,-0,4,80,-1
1,369,-1,../static/images/invador4.png,2,20,2,10,right,70,1,1136,1.29537763906556,0,0,1,11440,1430,8,16,9.34462064326264,18.6892412865253,1.31075871347471,1.31075871347471,0,-1,1,0,1,-1,-1,-1,1,1,0,0,-0,2,0,0
1,370,-1,../static/images/invador3.png,1,80,2,40,right,74,2,939,0.312420477222004,0,0,1,11440,1432,7.98882681564246,15.9776536312849,8.20102216216725,16.4020443243345,63.5979556756655,63.5979556756655,1,1,1,1,-1,1,1,-1,-1,-1,0,-0,0,2,0,0
1,372,-1,../static/images/invador3.png,1,80,2,40,right,74,2,841,-0.176563288568193,0,0,1,11520,1438,8.01112656467316,16.0222531293463,9.08663914380294,18.1732782876059,61.8267217123941,61.8267217123941,1,1,1,1,1,-1,1,1,-1,1,0,0,-0,4,80,0
1,374,-1,../static/images/invador2.png,4,20,8,2.5,right,70,1,1047,0.851300545643853,0,0,1,11600,1444,8.03324099722992,64.2659279778393,9.64745207776489,77.1796166221191,-57.1796166221191,57.1796166221191,0,-1,-1,-1,1,1,1,1,1,-1,0,0,0,4,80,1
1,376,-1,../static/images/invador3.png,1,80,2,40,right,74,2,873,-0.0168951201469038,0,0,1,11600,1448,8.01104972375691,16.0220994475138,7.43062339044953,14.8612467808991,65.1387532191009,65.1387532191009,1,1,1,1,1,1,-1,-1,1,1,0,0,0,2,0,1
1,378,-1,../static/images/invador3.png,1,80,2,40,right,74,2,822,-0.271366263568333,0,0,1,11700,1456,8.03571428571429,16.0714285714286,8.17870370191015,16.3574074038203,63.6425925961797,63.6425925961797,1,1,1,1,-1,1,1,1,1,1,1,-1,1,4,80,0
1,381,-1,../static/images/invador3.png,1,80,2,40,right,74,2,896,0.0978663759058974,0,0,1,11860,1466,8.09004092769441,16.1800818553888,10.9825515067765,21.965103013553,58.034896986447,58.034896986447,1,1,1,1,1,1,-1,1,1,1,1,1,1,2,0,1
1,382,-1,../static/images/invador2.png,4,20,8,2.5,right,70,1,1086,1.0458961259073,0,0,1,11940,1470,8.12244897959184,64.9795918367347,12.3607427039894,98.8859416319155,-78.8859416319155,78.8859416319155,0,-1,-1,-1,1,1,1,1,-1,1,1,1,1,4,80,1
1,385,-1,../static/images/invador3.png,1,80,2,40,right,74,2,787,-0.446003322779117,0,0,1,12100,1486,8.14266487213997,16.2853297442799,10.4177308260455,20.8354616520909,59.1645383479091,59.1645383479091,1,1,1,1,1,-1,1,1,-1,-1,1,1,-1,4,80,0
1,386,-1,../static/images/invador2.png,4,20,8,2.5,left,74,1,994,0.586850141696094,0,0,1,12180,1490,8.1744966442953,65.3959731543624,11.9531969569964,95.6255756559711,-75.6255756559711,75.6255756559711,0,-1,-1,-1,1,1,1,-1,1,1,1,1,1,10,80,1
1,388,-1,../static/images/invador3.png,1,80,2,40,left,70,2,866,-0.0518225319890607,0,0,1,12180,1494,8.15261044176707,16.3052208835341,9.20654533273257,18.4130906654651,61.5869093345349,61.5869093345349,1,1,1,1,1,-1,-1,-1,1,1,0,0,-0,2,0,0
1,389,-1,../static/images/invador3.png,1,80,2,40,right,74,2,870,-0.0318640109363996,0,0,1,12260,1498,8.18424566088117,16.3684913217623,11.0792673834891,22.1585347669782,57.8414652330218,57.8414652330218,1,1,1,1,1,1,1,-1,-1,-1,1,1,1,2,0,1
1,390,-1,../static/images/invador4.png,2,20,2,10,left,74,1,907,0.152752308800715,0,0,1,12340,1502,8.21571238348868,16.4314247669774,12.4305279394909,24.8610558789819,-4.86105587898189,4.86105587898189,0,-1,1,0,1,1,1,1,1,-1,1,1,1,4,80,1
1,391,-1,../static/images/invador3.png,1,80,2,40,right,74,2,853,-0.116687725410209,0,0,1,12340,1504,8.20478723404255,16.4095744680851,10.909274866359,21.818549732718,58.181450267282,58.181450267282,1,1,1,1,-1,1,1,1,1,1,0,-0,0,4,80,0
1,392,-1,../static/images/invador1.png,3,80,8,10,right,70,1,1007,0.651715335117243,0,0,1,12420,1508,8.23607427055703,65.8885941644562,12.3078700239072,98.462960191258,-18.462960191258,18.462960191258,0,1,-1,0,1,1,-1,1,1,1,1,1,1,2,0,1
1,393,-1,../static/images/invador4.png,2,20,2,10,left,74,1,969,0.462109385116962,0,0,1,12420,1510,8.22516556291391,16.4503311258278,10.8016278764523,21.6032557529046,-1.60325575290457,1.60325575290457,0,-1,1,0,1,-1,1,1,-1,1,0,0,-0,4,80,0
1,396,-1,../static/images/invador3.png,1,80,2,40,right,74,2,1007,0.651715335117243,0,0,1,12580,1520,8.27631578947368,16.5526315789474,12.5727517733889,25.1455035467777,54.8544964532223,54.8544964532223,1,1,1,1,1,1,1,1,-1,1,1,1,1,4,80,1
1,398,-1,../static/images/invador2.png,4,20,8,2.5,left,74,1,976,0.497036796959119,0,0,1,12660,1526,8.29619921363041,66.3695937090432,11.8550170776015,94.8401366208117,-74.8401366208117,74.8401366208117,0,-1,-1,-1,1,1,1,1,1,1,0,0,0,4,80,1
1,399,-1,../static/images/invador3.png,1,80,2,40,right,74,2,921,0.222607132485029,0,0,1,12660,1528,8.28534031413612,16.5706806282722,10.4041952581968,20.8083905163935,59.1916094836065,59.1916094836065,1,1,1,1,-1,-1,1,1,1,1,0,-0,-0,2,0,-1
1,400,-1,../static/images/invador3.png,1,80,2,40,left,70,2,888,0.0579493338005753,0,0,1,12740,1532,8.31592689295039,16.6318537859008,11.9434303827578,23.8868607655155,56.1131392344845,56.1131392344845,1,1,1,1,1,1,-1,-1,1,1,1,1,1,2,0,1
1,401,-1,../static/images/invador2.png,4,20,8,2.5,right,70,1,1046,0.846310915380688,0,0,1,12820,1536,8.34635416666667,66.7708333333333,13.0540638103887,104.43251048311,-84.4325104831097,84.4325104831097,0,-1,-1,-1,1,1,1,1,-1,-1,1,1,1,4,80,1
1,402,-1,../static/images/invador3.png,1,80,2,40,right,74,2,943,0.332378998274665,0,0,1,12820,1538,8.33550065019506,16.6710013003901,11.4565021633628,22.9130043267256,57.0869956732744,57.0869956732744,1,1,1,1,-1,-1,1,1,1,1,0,-0,-0,4,80,-1
1,403,-1,../static/images/invador3.png,1,80,2,40,left,70,2,944,0.33736862853783,0,0,1,12900,1542,8.36575875486381,16.7315175097276,12.7027212840342,25.4054425680684,54.5945574319316,54.5945574319316,1,1,1,1,1,1,-1,-1,1,1,1,1,1,2,0,1
1,406,-1,../static/images/invador1.png,3,80,8,10,left,74,1,920,0.217617502221864,0,0,1,13060,1558,8.38254172015404,67.0603337612323,10.2585537537361,82.0684300298885,-2.06843002988855,2.06843002988855,0,1,-1,0,1,-1,-1,1,1,1,1,1,-1,2,0,0
1,407,-1,../static/images/invador3.png,1,80,2,40,right,74,2,1059,0.911176108801837,0,0,1,13060,1560,8.37179487179487,16.7435897435897,9.00310776626664,18.0062155325333,61.9937844674667,61.9937844674667,1,1,1,1,1,-1,1,-1,-1,1,0,0,-0,10,80,0
1,408,-1,../static/images/invador3.png,1,80,2,40,right,74,2,1226,1.74444436275044,0,0,1,13140,1564,8.40153452685422,16.8030690537084,10.9324772289847,21.8649544579694,58.1350455420306,58.1350455420306,1,1,1,1,1,1,1,-1,1,-1,1,1,1,2,0,1
1,409,-1,../static/images/invador4.png,2,20,2,10,left,74,1,961,0.42219234301164,0,0,1,13220,1568,8.43112244897959,16.8622448979592,12.3246116633884,24.6492233267768,-4.6492233267768,4.6492233267768,0,-1,1,0,1,1,1,1,1,-1,1,1,1,4,80,1
1,410,-1,../static/images/invador2.png,4,20,8,2.5,left,74,1,1126,1.24548133643391,0,0,1,13220,1570,8.4203821656051,67.3630573248408,10.8163206672736,86.5305653381888,-66.5305653381888,66.5305653381888,0,-1,-1,-1,-1,1,1,1,1,1,0,-0,0,4,80,0
1,411,-1,../static/images/invador3.png,1,80,2,40,left,70,2,876,-0.001926229357408,0,0,1,13220,1572,8.40966921119593,16.8193384223919,9.49261493770467,18.9852298754093,61.0147701245907,61.0147701245907,1,1,1,1,-1,-1,-1,1,1,1,0,-0,-0,2,0,-1
1,413,-1,../static/images/invador4.png,2,20,2,10,left,74,1,915,0.192669350906038,0,0,1,13300,1578,8.42839036755386,16.8567807351077,9.90453440660082,19.8090688132016,0.190931186798352,0.190931186798352,0,-1,1,0,1,1,1,1,-1,-1,0,0,0,4,80,1
1,414,-1,../static/images/invador3.png,1,80,2,40,right,74,2,971,0.472088645643293,0,0,1,13300,1580,8.41772151898734,16.8354430379747,8.69241345105275,17.3848269021055,62.6151730978945,62.6151730978945,1,1,1,1,-1,1,1,1,1,1,0,-0,0,2,0,0
1,416,-1,../static/images/invador3.png,1,80,2,40,left,70,2,872,-0.0218847504100691,0,0,1,13460,1594,8.44416562107905,16.8883312421581,9.65911484770023,19.3182296954005,60.6817703045996,60.6817703045996,1,1,1,1,1,-1,1,1,-1,1,1,1,-1,4,80,0
1,417,-1,../static/images/invador2.png,4,20,8,2.5,right,70,1,1202,1.62469323643447,0,0,1,13540,1598,8.47309136420526,67.7847309136421,11.4058184240867,91.2465473926939,-71.2465473926939,71.2465473926939,0,-1,-1,-1,1,1,1,-1,1,1,1,1,1,10,80,1
1,418,-1,../static/images/invador3.png,1,80,2,40,left,70,2,852,-0.121677355673375,0,0,1,13540,1600,8.4625,16.925,10.0099697188919,20.0199394377837,59.9800605622163,59.9800605622163,1,1,1,1,-1,-1,1,1,1,-1,0,-0,-0,4,80,-1
1,419,-1,../static/images/invador3.png,1,80,2,40,left,70,2,963,0.432171603537971,0,0,1,13620,1604,8.49127182044888,16.9825436408978,11.6589773742528,23.3179547485056,56.6820452514944,56.6820452514944,1,1,1,1,1,1,-1,-1,1,1,1,1,1,2,0,1
1,420,-1,../static/images/invador3.png,1,80,2,40,right,74,2,824,-0.261387003042002,0,0,1,13700,1608,8.51990049751244,17.0398009950249,12.848817051921,25.697634103842,54.302365896158,54.302365896158,1,1,1,1,1,1,1,1,-1,-1,1,1,1,4,80,1
1,421,-1,../static/images/invador2.png,4,20,8,2.5,right,70,1,968,0.457119754853797,0,0,1,13780,1612,8.54838709677419,68.3870967741936,13.7073445753992,109.658756603193,-89.6587566031933,89.6587566031933,0,-1,-1,-1,1,1,1,1,1,1,1,1,1,4,80,1
1,423,-1,../static/images/invador3.png,1,80,2,40,left,70,2,900,0.117824896958559,0,0,1,13780,1616,8.52722772277228,17.0544554455446,10.5576181567838,21.1152363135677,58.8847636864323,58.8847636864323,1,1,1,1,-1,1,-1,-1,1,1,0,-0,0,2,0,0
1,424,-1,../static/images/invador3.png,1,80,2,40,right,74,2,979,0.512005687748615,0,0,1,13860,1620,8.55555555555556,17.1111111111111,12.0541325081289,24.1082650162578,55.8917349837422,55.8917349837422,1,1,1,1,1,1,-1,1,-1,-1,1,1,1,2,0,1
1,425,-1,../static/images/invador3.png,1,80,2,40,right,74,2,892,0.0779078548532363,0,0,1,13940,1624,8.58374384236453,17.1674876847291,13.1339408083763,26.2678816167526,53.7321183832474,53.7321183832474,1,1,1,1,1,1,1,1,-1,1,1,1,1,4,80,1
1,426,-1,../static/images/invador1.png,3,80,8,10,left,74,1,887,0.05295970353741,0,0,1,14020,1628,8.61179361179361,68.8943488943489,13.9130753113199,111.304602490559,-31.3046024905592,31.3046024905592,0,1,-1,0,1,1,1,1,1,1,1,1,1,4,80,1
1,427,-1,../static/images/invador3.png,1,80,2,40,left,70,2,847,-0.146625506989201,0,0,1,14020,1630,8.60122699386503,17.2024539877301,12.2103874868695,24.420774973739,55.579225026261,55.579225026261,1,1,1,1,1,-1,1,1,1,1,0,0,-0,4,80,0
1,428,-1,../static/images/invador1.png,3,80,8,10,left,74,1,885,0.0429804430110794,0,0,1,14100,1634,8.62913096695226,69.0330477356181,13.2466864180976,105.973491344781,-25.9734913447808,25.9734913447808,0,1,-1,0,1,1,1,-1,1,1,1,1,1,2,0,1
1,429,-1,../static/images/invador2.png,4,20,8,2.5,left,74,1,1092,1.07583390748629,0,0,1,14100,1636,8.61858190709046,68.9486552567237,11.6255515378705,93.0044123029638,-73.0044123029638,73.0044123029638,0,-1,-1,-1,1,-1,1,1,1,-1,0,0,-0,4,80,0
1,430,-1,../static/images/invador3.png,1,80,2,40,left,70,2,992,0.576870881169763,0,0,1,14100,1638,8.60805860805861,17.2161172161172,10.2028118046968,20.4056236093936,59.5943763906064,59.5943763906064,1,1,1,1,-1,-1,1,-1,1,1,0,-0,-0,2,0,-1
3,0,-1,../static/images/invador4.png,1,80,2,40,left,70,2,833,0.00725451228568999,0,0,-1,0,2,0,0,8.2105655838779,16.4211311677558,63.5788688322442,63.5788688322442,1,1,1,1,NaN,NaN,NaN,NaN,NaN,NaN,NaN,NaN,NaN,0,0,NaN
3,1,-1,../static/images/invador4.png,1,80,2,40,right,74,2,802,-0.225928487821368,0,0,-1,80,6,13.3333333333333,26.6666666666667,8.23289693076406,16.4657938615281,63.5342061384719,63.5342061384719,1,1,1,1,1,1,NaN,NaN,NaN,NaN,1,1,1,2,0,1
3,2,-1,../static/images/invador4.png,1,80,2,40,right,74,2,804,-0.210884423298332,0,0,-1,160,10,16,32,8.25516425639208,16.5103285127842,63.4896714872158,63.4896714872158,1,1,1,1,1,1,1,1,NaN,NaN,1,1,1,4,80,1
3,4,-1,../static/images/invador1.png,2,20,2,10,left,70,2,910,0.586450996422576,0,0,-1,320,24,13.3333333333333,26.6666666666667,8.27112111298981,16.5422422259796,3.45775777402037,3.45775777402037,1,-1,1,0,1,-1,1,1,1,1,1,1,-1,4,80,0
3,5,-1,../static/images/invador2.png,4,20,8,2.5,right,74,2,950,0.887332286883296,0,0,-1,340,28,12.1428571428571,97.1428571428571,8.25887632394388,66.071010591551,-46.071010591551,46.071010591551,1,-1,-1,-1,-1,1,1,-1,1,1,1,-1,1,10,80,0
3,7,-1,../static/images/invador4.png,1,80,2,40,right,74,2,815,-0.128142068421634,0,0,-1,360,40,9,18,8.20891107431339,16.4178221486268,63.5821778513732,63.5821778513732,1,1,1,1,1,1,-1,-1,-1,1,0,0,0,10,20,1
3,8,-1,../static/images/invador1.png,2,20,2,10,right,74,2,983,1.13555935151339,0,0,-1,440,44,10,20,8.23124716447743,16.4624943289549,3.53750567104514,3.53750567104514,1,-1,1,0,1,1,1,1,-1,-1,1,1,1,2,0,1
3,9,-1,../static/images/invador4.png,1,80,2,40,right,74,2,989,1.1806915450825,0,0,-1,460,48,9.58333333333333,19.1666666666667,8.21911668919697,16.4382333783939,63.5617666216061,63.5617666216061,1,1,1,1,-1,1,1,1,1,1,1,-1,1,4,80,0
3,10,-1,../static/images/invador3.png,3,80,8,10,right,70,1,1261,3.22668432021539,0,0,-1,540,52,10.3846153846154,83.0769230769231,8.24142352110318,65.9313881688254,14.0686118311746,14.0686118311746,0,1,-1,0,1,1,-1,1,1,1,1,1,1,4,20,1
3,11,-1,../static/images/invador4.png,1,80,2,40,left,70,2,1082,1.88024054540367,0,0,-1,540,54,10,20,8.23196451636638,16.4639290327328,63.5360709672672,63.5360709672672,1,1,1,1,1,-1,1,1,-1,1,0,0,-0,4,80,0
3,12,-1,../static/images/invador4.png,1,80,2,40,right,74,2,823,-0.06796581032949,0,0,-1,620,58,10.6896551724138,21.3793103448276,8.25423451511318,16.5084690302264,63.4915309697736,63.4915309697736,1,1,1,1,1,1,1,-1,1,1,1,1,1,2,0,1
3,13,-1,../static/images/invador2.png,4,20,8,2.5,left,70,2,859,0.202827351085158,0,0,-1,700,62,11.2903225806452,90.3225806451613,8.27644066847951,66.2115253478361,-46.2115253478361,46.2115253478361,1,-1,-1,-1,1,1,1,1,1,-1,1,1,1,4,80,1
3,14,-1,../static/images/invador2.png,4,20,8,2.5,right,70,1,1312,3.61030796555281,0,0,-1,720,72,10,80,8.23579734371246,65.8863787496997,-45.8863787496997,45.8863787496997,0,-1,-1,-1,-1,-1,1,1,1,1,1,-1,-1,4,80,-1
3,15,-1,../static/images/invador4.png,1,80,2,40,right,74,2,841,0.067430770377834,0,0,-1,720,74,9.72972972972973,19.4594594594595,8.22634479635993,16.4526895927199,63.5473104072802,63.5473104072802,1,1,1,1,-1,-1,-1,-1,1,1,0,-0,-0,10,20,-1
3,16,-1,../static/images/invador3.png,3,80,8,10,left,74,1,1016,1.38378641614348,0,0,-1,800,78,10.2564102564103,82.0512820512821,8.24863090616116,65.9890472492893,14.0109527507107,14.0109527507107,0,1,-1,0,1,1,-1,-1,-1,-1,1,1,1,2,0,1
3,17,-1,../static/images/invador1.png,2,20,2,10,right,74,2,918,0.64662725451472,0,0,-1,800,80,10,20,8.23916362922609,16.4783272584522,3.52167274154782,3.52167274154782,1,-1,1,0,1,-1,1,1,-1,-1,0,0,-0,4,80,0
3,18,-1,../static/images/invador4.png,1,80,2,40,left,70,2,837,0.037342641331762,0,0,-1,820,84,9.76190476190476,19.5238095238095,8.22701045840308,16.4540209168062,63.5459790831938,63.5459790831938,1,1,1,1,-1,1,1,-1,1,1,1,-1,1,2,0,0
3,19,-1,../static/images/invador4.png,1,80,2,40,right,74,2,847,0.112562963946942,0,0,-1,900,88,10.2272727272727,20.4545454545455,8.24929465983212,16.4985893196642,63.5014106803358,63.5014106803358,1,1,1,1,1,1,-1,1,1,-1,1,1,1,4,20,1
3,20,-1,../static/images/invador4.png,1,80,2,40,right,74,2,769,-0.474155552451462,0,0,-1,980,92,10.6521739130435,21.304347826087,8.27151497516332,16.5430299503266,63.4569700496734,63.4569700496734,1,1,1,1,1,1,1,1,-1,1,1,1,1,4,80,1
3,22,-1,../static/images/invador1.png,2,20,2,10,right,74,2,1052,1.65457957755813,0,0,-1,1140,106,10.7547169811321,21.5094339622642,8.28732230258208,16.5746446051642,3.42535539483583,3.42535539483583,1,-1,1,0,1,-1,1,1,1,1,1,1,-1,4,80,0
3,23,-1,../static/images/invador2.png,4,20,8,2.5,left,74,1,892,0.451054415715252,0,0,-1,1160,110,10.5454545454545,84.3636363636364,8.27503106669412,66.200248533553,-46.200248533553,46.200248533553,0,-1,-1,-1,-1,1,1,-1,1,1,1,-1,1,10,80,0
3,25,-1,../static/images/invador4.png,1,80,2,40,right,74,2,813,-0.14318613294467,0,0,-1,1240,116,10.6896551724138,21.3793103448276,8.28770724984059,16.5754144996812,63.4245855003188,63.4245855003188,1,1,1,1,1,1,-1,-1,-1,1,1,1,1,2,0,1
3,26,-1,../static/images/invador4.png,1,80,2,40,right,74,2,702,-0.978131713973168,0,0,-1,1320,120,11,22,8.30981744094359,16.6196348818872,63.3803651181128,63.3803651181128,1,1,1,1,1,1,1,1,-1,-1,1,1,1,4,80,1
3,27,-1,../static/images/invador4.png,1,80,2,40,left,70,2,735,-0.729904649343074,0,0,-1,1400,124,11.2903225806452,22.5806451612903,8.33186424481521,16.6637284896304,63.3362715103696,63.3362715103696,1,1,1,1,1,1,1,1,1,1,1,1,1,4,80,1
3,28,-1,../static/images/invador4.png,1,80,2,40,left,70,2,746,-0.647162294466376,0,0,-1,1480,128,11.5625,23.125,8.35384784317894,16.7076956863579,63.2923043136421,63.2923043136421,1,1,1,1,1,1,1,1,1,1,1,1,1,4,80,1
3,30,-1,../static/images/invador4.png,1,80,2,40,right,74,2,858,0.19530531882364,0,0,-1,1580,142,11.1267605633803,22.2535211267606,8.33449969658692,16.6689993931738,63.3310006068262,63.3310006068262,1,1,1,1,-1,-1,1,1,1,1,1,-1,-1,4,80,-1
3,31,-1,../static/images/invador1.png,2,20,2,10,right,74,2,868,0.27052564143882,0,0,-1,1660,146,11.3698630136986,22.7397260273973,8.35647573943064,16.7129514788613,3.28704852113871,3.28704852113871,1,-1,1,0,1,1,-1,-1,1,1,1,1,1,10,20,1
3,32,-1,../static/images/invador4.png,1,80,2,40,left,70,2,541,-2.18917890807757,0,0,-1,1680,150,11.2,22.4,8.34398624904178,16.6879724980836,63.3120275019164,63.3120275019164,1,1,1,1,-1,1,1,1,-1,-1,1,-1,1,4,80,0
3,33,-1,../static/images/invador3.png,3,80,8,10,left,74,1,1080,1.86519648088064,0,0,-1,1760,154,11.4285714285714,91.4285714285714,8.3659350950923,66.9274807607384,13.0725192392616,13.0725192392616,0,1,-1,0,1,1,-1,1,1,1,1,1,1,4,20,1
3,34,-1,../static/images/invador4.png,1,80,2,40,left,70,2,768,-0.48167758471298,0,0,-1,1760,156,11.2820512820513,22.5641025641026,8.35633318354272,16.7126663670854,63.2873336329146,63.2873336329146,1,1,1,1,1,-1,1,1,-1,1,0,0,-0,4,80,0
3,35,-1,../static/images/invador4.png,1,80,2,40,right,74,2,784,-0.361325068528692,0,0,-1,1840,160,11.5,23,8.37824663243224,16.7564932648645,63.2435067351355,63.2435067351355,1,1,1,1,1,1,1,-1,1,1,1,1,1,2,0,1
3,36,-1,../static/images/invador4.png,1,80,2,40,left,70,2,904,0.541318802853468,0,0,-1,1920,164,11.7073170731707,23.4146341463415,8.40009725812641,16.8001945162528,63.1998054837472,63.1998054837472,1,1,1,1,1,1,1,1,1,-1,1,1,1,4,80,1
3,37,-1,../static/images/invador2.png,4,20,8,2.5,left,74,1,975,1.07538309342125,0,0,-1,2000,168,11.9047619047619,95.2380952380952,8.42188524073168,67.3750819258535,-47.3750819258535,47.3750819258535,0,-1,-1,-1,1,1,1,1,1,1,1,1,1,4,80,1
3,38,-1,../static/images/invador3.png,3,80,8,10,right,70,1,1101,2.02315915837251,0,0,-1,2000,170,11.7647058823529,94.1176470588235,8.4122191130074,67.2977529040592,12.7022470959408,12.7022470959408,0,1,-1,0,-1,-1,1,1,1,1,0,-0,-0,4,80,-1
3,40,-1,../static/images/invador1.png,2,20,2,10,right,74,2,955,0.924942448190886,0,0,-1,2080,176,11.8181818181818,23.6363636363636,8.4243449900049,16.8486899800098,3.15131001999019,3.15131001999019,1,-1,1,0,1,1,1,-1,-1,-1,1,1,1,2,0,1
3,41,-1,../static/images/invador4.png,1,80,2,40,right,74,2,814,-0.135664100683152,0,0,-1,2100,180,11.6666666666667,23.3333333333333,8.41166092672115,16.8233218534423,63.1766781465577,63.1766781465577,1,1,1,1,-1,1,1,1,1,-1,1,-1,1,4,80,0
3,43,-1,../static/images/invador4.png,1,80,2,40,right,74,2,796,-0.271060681390476,0,0,-1,2180,186,11.7204301075269,23.4408602150538,8.42373639594317,16.8474727918863,63.1525272081137,63.1525272081137,1,1,1,1,-1,1,1,1,-1,1,0,-0,0,4,80,0
3,44,-1,../static/images/invador2.png,4,20,8,2.5,left,74,1,981,1.12051528699035,0,0,-1,2260,190,11.8947368421053,95.1578947368421,8.44545660801262,67.563652864101,-47.563652864101,47.563652864101,0,-1,-1,-1,1,1,-1,1,1,1,1,1,1,2,0,1
3,45,-1,../static/images/invador4.png,1,80,2,40,right,74,2,784,-0.361325068528692,0,0,-1,2260,192,11.7708333333333,23.5416666666667,8.4357634265064,16.8715268530128,63.1284731469872,63.1284731469872,1,1,1,1,-1,-1,1,1,-1,1,0,-0,-0,4,80,-1
3,46,-1,../static/images/invador4.png,1,80,2,40,right,74,2,814,-0.135664100683152,0,0,-1,2340,196,11.9387755102041,23.8775510204082,8.45744915854058,16.9148983170812,63.0851016829188,63.0851016829188,1,1,1,1,1,1,-1,-1,1,1,1,1,1,2,0,1
3,47,-1,../static/images/invador4.png,1,80,2,40,left,70,2,799,-0.248494584605922,0,0,-1,2420,200,12.1,24.2,8.47907272021596,16.9581454404319,63.0418545595681,63.0418545595681,1,1,1,1,1,1,1,1,-1,-1,1,1,1,4,80,1
3,48,-1,../static/images/invador3.png,3,80,8,10,left,74,1,996,1.23334577091312,0,0,-1,2500,204,12.2549019607843,98.0392156862745,8.5006342897674,68.0050743181392,11.9949256818608,11.9949256818608,0,1,-1,0,1,1,1,1,1,1,1,1,1,4,80,1
3,49,-1,../static/images/invador4.png,1,80,2,40,left,70,2,787,-0.338758971744138,0,0,-1,2500,206,12.1359223300971,24.2718446601942,8.49087777867356,16.9817555573471,63.0182444426529,63.0182444426529,1,1,1,1,1,-1,1,1,1,1,0,0,-0,4,80,0
3,50,-1,../static/images/invador4.png,1,80,2,40,right,74,2,843,0.08247483490087,0,0,-1,2580,210,12.2857142857143,24.5714285714286,8.51240550455678,17.0248110091136,62.9751889908864,62.9751889908864,1,1,1,1,1,1,1,-1,1,1,1,1,1,2,0,1
3,51,-1,../static/images/invador4.png,1,80,2,40,left,70,2,811,-0.158230197467706,0,0,-1,2660,214,12.4299065420561,24.8598130841122,8.53387151306564,17.0677430261313,62.9322569738687,62.9322569738687,1,1,1,1,1,1,1,1,1,-1,1,1,1,4,80,1
3,52,-1,../static/images/invador2.png,4,20,8,2.5,left,74,1,1001,1.27095593222071,0,0,-1,2740,218,12.5688073394495,100.550458715596,8.55527598113635,68.4422078490908,-48.4422078490908,48.4422078490908,0,-1,-1,-1,1,1,1,1,1,1,1,1,1,4,80,1
3,54,-1,../static/images/invador4.png,1,80,2,40,right,74,2,847,0.112562963946942,0,0,-1,2820,230,12.2608695652174,24.5217391304348,8.53752215931247,17.0750443186249,62.9249556813751,62.9249556813751,1,1,1,1,1,-1,-1,-1,1,1,1,1,-1,2,0,0
3,55,-1,../static/images/invador1.png,2,20,2,10,left,74,1,955,0.924942448190886,0,0,-1,2900,234,12.3931623931624,24.7863247863248,8.55891616142396,17.1178323228479,2.88216767715208,2.88216767715208,0,-1,1,0,1,1,1,-1,-1,-1,1,1,1,10,80,1
3,56,-1,../static/images/invador4.png,1,80,2,40,right,74,2,885,0.398400189884626,0,0,-1,2900,236,12.2881355932203,24.5762711864407,8.54909275794209,17.0981855158842,62.9018144841158,62.9018144841158,1,1,1,1,-1,1,1,1,1,-1,0,-0,0,4,80,0
3,57,-1,../static/images/invador2.png,4,20,8,2.5,right,70,1,887,0.413444254407662,0,0,-1,2980,240,12.4166666666667,99.3333333333333,8.57045358855321,68.5636287084257,-48.5636287084257,48.5636287084257,0,-1,-1,-1,1,1,-1,1,1,1,1,1,1,2,0,1
3,61,-1,../static/images/invador3.png,3,80,8,10,right,70,1,1038,1.54927112589688,0,0,-1,3060,250,12.24,97.92,8.56230895818881,68.4984716655105,11.5015283344895,11.5015283344895,0,1,-1,0,-1,1,1,1,1,1,0,-0,0,4,80,0
3,62,-1,../static/images/invador4.png,1,80,2,40,left,70,2,887,0.413444254407662,0,0,-1,3060,252,12.1428571428571,24.2857142857143,8.55248166066114,17.1049633213223,62.8950366786777,62.8950366786777,1,1,1,1,1,-1,-1,1,1,1,0,0,-0,2,0,0
3,63,-1,../static/images/invador4.png,1,80,2,40,right,74,2,813,-0.14318613294467,0,0,-1,3140,256,12.265625,24.53125,8.57383277569993,17.1476655513999,62.8523344486001,62.8523344486001,1,1,1,1,1,1,1,-1,-1,1,1,1,1,2,0,1
3,65,-1,../static/images/invador3.png,3,80,8,10,right,70,1,904,0.541318802853468,0,0,-1,3300,264,12.5,100,8.61635154810458,68.9308123848366,11.0691876151634,11.0691876151634,0,1,-1,0,1,1,1,1,1,1,1,1,1,4,80,1
3,66,-1,../static/images/invador4.png,1,80,2,40,left,70,2,818,-0.10557597163708,0,0,-1,3300,266,12.406015037594,24.812030075188,8.60646222377865,17.2129244475573,62.7870755524427,62.7870755524427,1,1,1,1,1,-1,1,1,1,1,0,0,-0,4,80,0
3,68,-1,../static/images/invador4.png,1,80,2,40,right,74,2,854,0.165217189777568,0,0,-1,3380,272,12.4264705882353,24.8529411764706,8.61775628124886,17.2355125624977,62.7644874375023,62.7644874375023,1,1,1,1,-1,1,1,1,1,-1,0,-0,0,4,80,0
3,70,-1,../static/images/invador3.png,3,80,8,10,left,74,1,898,0.49618660928436,0,0,-1,3480,286,12.1678321678322,97.3426573426573,8.59599466203698,68.7679572962958,11.2320427037042,11.2320427037042,0,1,-1,0,-1,-1,1,1,-1,1,1,-1,-1,4,80,-1
3,71,-1,../static/images/invador4.png,1,80,2,40,right,74,2,799,-0.248494584605922,0,0,-1,3480,288,12.0833333333333,24.1666666666667,8.58612870210694,17.1722574042139,62.8277425957861,62.8277425957861,1,1,1,1,1,-1,-1,-1,1,1,0,0,-0,10,20,0
3,72,-1,../static/images/invador4.png,1,80,2,40,left,70,2,886,0.405922222146144,0,0,-1,3560,292,12.1917808219178,24.3835616438356,8.60738335516622,17.2147667103324,62.7852332896676,62.7852332896676,1,1,1,1,1,1,1,-1,-1,-1,1,1,1,2,0,1
3,73,-1,../static/images/invador4.png,1,80,2,40,left,70,2,928,0.7218475771299,0,0,-1,3640,296,12.2972972972973,24.5945945945946,8.62857707371774,17.2571541474355,62.7428458525645,62.7428458525645,1,1,1,1,1,1,1,1,1,-1,1,1,1,4,80,1
3,74,-1,../static/images/invador4.png,1,80,2,40,right,74,2,999,1.25591186769768,0,0,-1,3720,300,12.4,24.8,8.64971003245334,17.2994200649067,62.7005799350933,62.7005799350933,1,1,1,1,1,1,1,1,1,1,1,1,1,4,80,1
3,75,-1,../static/images/invador1.png,2,20,2,10,left,70,2,921,0.669193351299274,0,0,-1,3800,304,12.5,25,8.67078240556402,17.341564811128,2.65843518887197,2.65843518887197,1,-1,1,0,1,1,1,1,1,1,1,1,1,4,80,1
3,76,-1,../static/images/invador2.png,4,20,8,2.5,right,70,1,1169,2.53465735215574,0,0,-1,3820,308,12.4025974025974,99.2207792207792,8.65739183615343,69.2591346892274,-49.2591346892274,49.2591346892274,0,-1,-1,-1,-1,1,1,1,1,1,1,-1,1,4,80,0
3,77,-1,../static/images/invador3.png,3,80,8,10,right,70,1,993,1.21077967412857,0,0,-1,3820,310,12.3225806451613,98.5806451612903,8.64745540828064,69.1796432662451,10.8203567337549,10.8203567337549,0,1,-1,0,-1,-1,-1,1,1,1,0,-0,-0,4,20,-1
3,79,-1,../static/images/invador4.png,1,80,2,40,left,70,2,954,0.917420415929368,0,0,-1,3820,314,12.1656050955414,24.3312101910828,8.62761675272872,17.2552335054574,62.7447664945426,62.7447664945426,1,1,1,1,1,1,1,-1,-1,-1,0,0,0,2,0,1
3,80,-1,../static/images/invador1.png,2,20,2,10,right,74,2,1145,2.35412857787931,0,0,-1,3900,318,12.2641509433962,24.5283018867925,8.64875246458791,17.2975049291758,2.70249507082418,2.70249507082418,1,-1,1,0,1,1,1,1,1,-1,1,1,1,2,0,1
3,81,-1,../static/images/invador4.png,1,80,2,40,left,70,2,833,0.00725451228568999,0,0,-1,3920,322,12.1739130434783,24.3478260869565,8.63542505234133,17.2708501046827,62.7291498953173,62.7291498953173,1,1,1,1,-1,1,1,1,1,1,1,-1,1,4,80,0
3,82,-1,../static/images/invador4.png,1,80,2,40,right,74,2,779,-0.398935229836282,0,0,-1,4000,326,12.2699386503067,24.5398773006135,8.65653837875428,17.3130767575086,62.6869232424914,62.6869232424914,1,1,1,1,1,1,-1,1,1,1,1,1,1,4,20,1
3,83,-1,../static/images/invador2.png,4,20,8,2.5,left,74,1,1082,1.88024054540367,0,0,-1,4080,330,12.3636363636364,98.9090909090909,8.6775911758258,69.4207294066064,-49.4207294066064,49.4207294066064,0,-1,-1,-1,1,1,1,1,-1,1,1,1,1,4,80,1
3,84,-1,../static/images/invador2.png,4,20,8,2.5,right,70,1,985,1.15060341603643,0,0,-1,4080,332,12.289156626506,98.3132530120482,8.66763156437931,69.3410525150345,-49.3410525150345,49.3410525150345,0,-1,-1,-1,-1,-1,1,1,1,1,0,-0,-0,4,80,-1
3,85,-1,../static/images/invador3.png,3,80,8,10,right,70,1,860,0.210349383346676,0,0,-1,4080,334,12.2155688622754,97.7245508982036,8.65768338396917,69.2614670717533,10.7385329282467,10.7385329282467,0,1,-1,0,-1,-1,-1,-1,1,1,0,-0,-0,2,0,-1
3,86,-1,../static/images/invador4.png,1,80,2,40,left,70,2,801,-0.233450520082886,0,0,-1,4080,336,12.1428571428571,24.2857142857143,8.64774662147552,17.295493242951,62.7045067570489,62.7045067570489,1,1,1,1,1,-1,-1,-1,-1,-1,0,0,-0,2,0,0
3,87,-1,../static/images/invador4.png,1,80,2,40,left,70,2,872,0.300613770484892,0,0,-1,4160,340,12.2352941176471,24.4705882352941,8.66882462344691,17.3376492468938,62.6623507531062,62.6623507531062,1,1,1,1,1,1,1,-1,-1,-1,1,1,1,2,0,1
3,88,-1,../static/images/invador1.png,2,20,2,10,right,74,2,880,0.360790028577036,0,0,-1,4240,344,12.3255813953488,24.6511627906977,8.68984219734774,17.3796843946955,2.62031560530452,2.62031560530452,1,-1,1,0,1,1,1,1,1,-1,1,1,1,4,80,1
3,89,-1,../static/images/invador4.png,1,80,2,40,right,74,2,956,0.932464480452404,0,0,-1,4260,348,12.2413793103448,24.4827586206897,8.67639698582998,17.35279397166,62.64720602834,62.64720602834,1,1,1,1,-1,1,1,1,1,1,1,-1,1,4,80,0
3,90,-1,../static/images/invador4.png,1,80,2,40,right,74,2,1117,2.1435116745568,0,0,-1,4340,352,12.3295454545455,24.6590909090909,8.69739285068795,17.3947857013759,62.6052142986241,62.6052142986241,1,1,1,1,1,1,-1,1,1,1,1,1,1,4,20,1
3,93,-1,../static/images/invador1.png,2,20,2,10,right,74,2,888,0.42096628666918,0,0,-1,4500,362,12.4309392265193,24.8618784530387,8.72922649493147,17.4584529898629,2.54154701013707,2.54154701013707,1,-1,1,0,1,1,1,1,1,1,1,1,1,2,0,1
3,94,-1,../static/images/invador4.png,1,80,2,40,left,70,2,838,0.04486467359328,0,0,-1,4520,366,12.3497267759563,24.6994535519126,8.71566837341796,17.4313367468359,62.5686632531641,62.5686632531641,1,1,1,1,-1,1,1,1,1,1,1,-1,1,4,80,0
3,95,-1,../static/images/invador3.png,3,80,8,10,left,74,1,902,0.526274738330432,0,0,-1,4600,370,12.4324324324324,99.4594594594595,8.73655165197941,69.8924132158353,10.1075867841647,10.1075867841647,0,1,-1,0,1,1,-1,1,1,1,1,1,1,4,20,1
3,97,-1,../static/images/invador4.png,1,80,2,40,right,74,2,1058,1.69971177112724,0,0,-1,4600,382,12.0418848167539,24.0837696335079,8.67656032243333,17.3531206448667,62.6468793551333,62.6468793551333,1,1,1,1,-1,-1,1,-1,1,1,NaN,NaN,NaN,2,0,-1
3,98,-1,../static/images/invador1.png,2,20,2,10,left,70,2,1012,1.35369828709741,0,0,-1,4680,386,12.1243523316062,24.2487046632124,8.6975557190251,17.3951114380502,2.6048885619498,2.6048885619498,1,-1,1,0,1,1,-1,-1,1,-1,1,1,1,10,0,1
3,99,-1,../static/images/invador2.png,4,20,8,2.5,left,74,1,844,0.089996867162388,0,0,-1,4700,390,12.0512820512821,96.4102564102564,8.68408839377793,69.4727071502234,-49.4727071502234,49.4727071502234,0,-1,-1,-1,-1,1,1,1,-1,-1,1,-1,1,4,80,0
3,100,-1,../static/images/invador4.png,1,80,2,40,left,70,2,988,1.17316951282098,0,0,-1,4700,392,11.9897959183673,23.9795918367347,8.67412132521978,17.3482426504396,62.6517573495604,62.6517573495604,1,1,1,1,-1,-1,-1,1,1,1,0,-0,-0,4,20,-1
3,101,-1,../static/images/invador4.png,1,80,2,40,right,74,2,1013,1.36122031935893,0,0,-1,4780,396,12.0707070707071,24.1414141414141,8.69512371412021,17.3902474282404,62.6097525717596,62.6097525717596,1,1,1,1,1,1,-1,-1,-1,1,1,1,1,2,0,1
3,102,-1,../static/images/invador3.png,3,80,8,10,left,74,1,886,0.405922222146144,0,0,-1,4860,400,12.15,97.2,8.71606589172358,69.7285271337886,10.2714728662114,10.2714728662114,0,1,-1,0,1,1,1,1,-1,-1,1,1,1,4,80,1
3,103,-1,../static/images/invador4.png,1,80,2,40,left,70,2,788,-0.33123693948262,0,0,-1,4860,402,12.089552238806,24.1791044776119,8.70606212133792,17.4121242426758,62.5878757573242,62.5878757573242,1,1,1,1,1,-1,1,1,1,1,0,0,-0,4,80,0
3,104,-1,../static/images/invador4.png,1,80,2,40,left,70,2,819,-0.098053939375562,0,0,-1,4940,406,12.1674876847291,24.3349753694581,8.72697293985687,17.4539458797137,62.5460541202863,62.5460541202863,1,1,1,1,1,1,1,-1,1,1,1,1,1,2,0,1
3,105,-1,../static/images/invador1.png,2,20,2,10,right,74,2,938,0.79706789974508,0,0,-1,5020,410,12.2439024390244,24.4878048780488,8.74782380959991,17.4956476191998,2.50435238080019,2.50435238080019,1,-1,1,0,1,1,1,1,1,-1,1,1,1,4,80,1
3,107,-1,../static/images/invador3.png,3,80,8,10,right,70,1,845,0.097518899423906,0,0,-1,5120,418,12.2488038277512,97.9904306220096,8.75504248701609,70.0403398961287,9.9596601038713,9.9596601038713,0,1,-1,0,1,1,-1,1,1,1,1,1,1,4,20,1
3,108,-1,../static/images/invador4.png,1,80,2,40,right,74,2,819,-0.098053939375562,0,0,-1,5120,420,12.1904761904762,24.3809523809524,8.74499398166461,17.4899879633292,62.5100120366708,62.5100120366708,1,1,1,1,1,-1,1,1,-1,1,0,0,-0,4,80,0
3,109,-1,../static/images/invador2.png,4,20,8,2.5,right,70,1,1081,1.87271851314215,0,0,-1,5200,424,12.2641509433962,98.1132075471698,8.76579318727045,70.1263454981636,-50.1263454981636,50.1263454981636,0,-1,-1,-1,1,1,1,-1,1,1,1,1,1,2,0,1
3,110,-1,../static/images/invador4.png,1,80,2,40,right,74,2,936,0.782023835222044,0,0,-1,5200,426,12.2065727699531,24.4131455399061,8.755732342919,17.511464685838,62.488535314162,62.488535314162,1,1,1,1,-1,-1,1,1,1,-1,0,-0,-0,4,80,-1
3,111,-1,../static/images/invador4.png,1,80,2,40,left,70,2,847,0.112562963946942,0,0,-1,5280,430,12.2790697674419,24.5581395348837,8.77650076294789,17.5530015258958,62.4469984741042,62.4469984741042,1,1,1,1,1,1,-1,-1,1,1,1,1,1,2,0,1
3,112,-1,../static/images/invador2.png,4,20,8,2.5,right,70,1,928,0.7218475771299,0,0,-1,5360,434,12.3502304147465,98.8018433179724,8.79720964244005,70.3776771395204,-50.3776771395204,50.3776771395204,0,-1,-1,-1,1,1,1,1,-1,-1,1,1,1,4,80,1
3,114,-1,../static/images/invador4.png,1,80,2,40,left,70,2,989,1.1806915450825,0,0,-1,5440,440,12.3636363636364,24.7272727272727,8.80779119643468,17.6155823928694,62.3844176071306,62.3844176071306,1,1,1,1,1,1,-1,-1,1,1,1,1,1,2,0,1
3,115,-1,../static/images/invador3.png,3,80,8,10,right,70,1,825,-0.052921745806454,0,0,-1,5520,444,12.4324324324324,99.4594594594595,8.828410370056,70.627282960448,9.37271703955203,9.37271703955203,0,1,-1,0,1,1,1,1,-1,-1,1,1,1,4,80,1
3,116,-1,../static/images/invador1.png,2,20,2,10,left,70,2,906,0.556362867376504,0,0,-1,5520,446,12.3766816143498,24.7533632286996,8.81827765751004,17.6365553150201,2.36344468497991,2.36344468497991,1,-1,1,0,1,-1,1,1,1,1,0,0,-0,4,80,0
3,117,-1,../static/images/invador4.png,1,80,2,40,right,74,2,820,-0.090531907114044,0,0,-1,5540,450,12.3111111111111,24.6222222222222,8.80446423713365,17.6089284742673,62.3910715257327,62.3910715257327,1,1,1,1,-1,1,1,-1,1,1,1,-1,1,2,0,0
