subj,trial_index_actual,block,stimulus,stim_rank,reward_percent,delay_s,profitability,stim_left_right,key_press,approach_avoid,rt,rt_z,force_trial,missed,order_condition,reward_sum,delay_sum,Q_arithmetic,opp_cost_arithmetic,Q_estimate,opp_cost_estimate
1,0,1,../static/images/invador2.png,4,20,8,2.5,left,74,1,1172.0,1.47500432853951,0,0,2,0.0,2.0,0.0,0.0,7.214033051370394,57.71226441096315
1,1,1,../static/images/invador3.png,1,80,2,40.0,right,74,2,1046.0,0.846310915380688,1,0,2,0.0,4.0,0.0,0.0,6.3311767477207335,12.662353495441467
1,2,1,../static/images/invador1.png,3,80,8,10.0,left,70,2,743.0,-0.665547054358389,0,0,2,80.0,8.0,10.0,80.0,9.004548312752666,72.03638650202133
1,3,1,../static/images/invador2.png,4,20,8,2.5,right,74,0,NaN,NaN,1,1,2,160.0,18.0,8.88888888888889,71.11111111111111,8.828135927871903,70.62508742297523
1,4,1,../static/images/invador2.png,4,20,8,2.5,left,70,2,858.0,-0.0917395740943829,0,0,2,160.0,28.0,5.714285714285714,45.714285714285715,4.596217398048087,36.7697391843847
1,5,1,../static/images/invador4.png,2,20,2,10.0,left,70,2,818.0,-0.291324784620994,0,0,2,180.0,38.0,4.7368421052631575,9.473684210526315,3.350813797100946,6.701627594201892
1,6,1,../static/images/invador2.png,4,20,8,2.5,left,70,2,1076.0,0.995999823275646,0,0,2,200.0,42.0,4.761904761904762,38.095238095238095,3.526849702224575,28.2147976177966
1,7,1,../static/images/invador2.png,4,20,8,2.5,right,74,2,987.0,0.551922729853937,0,0,2,220.0,52.0,4.230769230769231,33.84615384615385,2.829244802180018,22.633958417440144
1,8,1,../static/images/invador1.png,3,80,8,10.0,left,74,1,766.0,-0.550785558305588,2,0,2,240.0,62.0,3.870967741935484,30.967741935483872,2.488997861872029,19.911982894976234
1,9,1,../static/images/invador4.png,2,20,2,10.0,right,74,2,1059.0,0.911176108801837,0,0,2,240.0,64.0,3.75,7.5,2.1843932895784746,4.368786579156949
1,10,1,../static/images/invador2.png,4,20,8,2.5,left,74,1,569.0,-1.53374272014915,2,0,2,260.0,68.0,3.823529411764706,30.58823529411765,2.685220255457493,21.481762043659945
1,11,1,../static/images/invador3.png,1,80,2,40.0,right,74,2,940.0,0.317410107485169,0,0,2,260.0,70.0,3.7142857142857144,7.428571428571429,2.356601906700682,4.713203813401364
1,12,1,../static/images/invador2.png,4,20,8,2.5,left,74,1,791.0,-0.426044801726456,2,0,2,340.0,74.0,4.594594594594595,36.75675675675676,6.136698165221184,49.093585321769474
1,13,1,../static/images/invador2.png,4,20,8,2.5,left,70,2,907.0,0.152752308800715,0,0,2,340.0,76.0,4.473684210526316,35.78947368421053,5.385686543818695,43.08549235054956
1,14,1,../static/images/invador2.png,4,20,8,2.5,right,70,1,962.0,0.427181973274805,2,0,2,360.0,86.0,4.186046511627907,33.48837209302326,3.735866226203515,29.88692980962812
1,15,1,../static/images/invador2.png,4,20,8,2.5,left,70,2,919.0,0.212627871958699,0,0,2,360.0,88.0,4.090909090909091,32.72727272727273,3.2786693955389947,26.229355164311958
1,16,1,../static/images/invador2.png,4,20,8,2.5,left,74,1,949.0,0.362316779853657,0,0,2,380.0,98.0,3.877551020408163,31.020408163265305,2.7081983617248646,21.665586893798917
1,17,1,../static/images/invador4.png,2,20,2,10.0,left,70,2,873.0,-0.0168951201469038,0,0,2,380.0,100.0,3.8,7.6,2.3767679429623265,4.753535885924653
1,18,1,../static/images/invador1.png,3,80,8,10.0,left,70,2,1016.0,0.69662200748573,0,0,2,400.0,104.0,3.8461538461538463,30.76923076923077,2.824027977076997,22.592223816615977
1,19,1,../static/images/invador3.png,1,80,2,40.0,left,70,2,907.0,0.152752308800715,0,0,2,480.0,114.0,4.2105263157894735,8.421052631578947,5.813674398730358,11.627348797460716
1,20,1,../static/images/invador2.png,4,20,8,2.5,left,74,1,763.0,-0.565754449095084,0,0,2,560.0,118.0,4.745762711864407,37.96610169491525,8.631145056489151,69.04916045191321
1,21,1,../static/images/invador2.png,4,20,8,2.5,left,74,1,1056.0,0.896207218012341,0,0,2,560.0,120.0,4.666666666666667,37.333333333333336,7.574862008355828,60.59889606684662
1,22,1,../static/images/invador4.png,2,20,2,10.0,right,74,2,772.0,-0.520847776726596,0,0,2,560.0,122.0,4.590163934426229,9.180327868852459,6.647847309957281,13.295694619914562
1,23,1,../static/images/invador2.png,4,20,8,2.5,left,74,1,868.0,-0.0418432714627302,0,0,2,580.0,126.0,4.603174603174603,36.82539682539682,5.90582064238043,47.24656513904344
1,24,1,../static/images/invador1.png,3,80,8,10.0,right,74,2,1015.0,0.691632377222565,0,0,2,580.0,128.0,4.53125,36.25,5.183063906277122,41.46451125021698
1,25,1,../static/images/invador3.png,1,80,2,40.0,left,74,1,961.0,0.42219234301164,0,0,2,660.0,138.0,4.782608695652174,9.565217391304348,6.9642608652756595,13.928521730551319
1,26,1,../static/images/invador2.png,4,20,8,2.5,right,70,1,1075.0,0.991010193012481,0,0,2,660.0,140.0,4.714285714285714,37.714285714285715,6.111971783511433,48.895774268091465
1,27,1,../static/images/invador2.png,4,20,8,2.5,left,74,1,1015.0,0.691632377222565,0,0,2,660.0,142.0,4.647887323943662,37.183098591549296,5.363986186775514,42.91188949420411
1,28,1,../static/images/invador4.png,2,20,2,10.0,left,70,2,954.0,0.387264931169483,0,0,2,660.0,144.0,4.583333333333333,9.166666666666666,4.707539372079416,9.415078744158832
1,29,1,../static/images/invador2.png,4,20,8,2.5,left,70,2,907.0,0.152752308800715,0,0,2,680.0,148.0,4.594594594594595,36.75675675675676,4.5057935631390595,36.046348505112476
1,30,1,../static/images/invador1.png,3,80,8,10.0,left,74,1,612.0,-1.31918861883304,2,0,2,700.0,158.0,4.430379746835443,35.44303797468354,3.3067108483447867,26.453686786758293
1,31,1,../static/images/invador3.png,1,80,2,40.0,left,70,2,871.0,-0.0268743806732344,1,0,2,700.0,160.0,4.375,8.75,2.9020342276501605,5.804068455300321
1,32,1,../static/images/invador2.png,4,20,8,2.5,right,70,1,948.0,0.357327149590492,0,0,2,780.0,164.0,4.7560975609756095,38.048780487804876,6.530254262331171,52.24203409864937
1,33,1,../static/images/invador2.png,4,20,8,2.5,left,74,1,967.0,0.452130124590632,0,0,2,780.0,166.0,4.698795180722891,37.59036144578313,5.731079085439106,45.84863268351285
1,34,1,../static/images/invador2.png,4,20,8,2.5,right,70,1,1068.0,0.956082781170324,0,0,2,780.0,168.0,4.642857142857143,37.142857142857146,5.02970729225977,40.23765833807816
1,35,1,../static/images/invador3.png,1,80,2,40.0,right,74,2,783.0,-0.465961843831778,0,0,2,780.0,170.0,4.588235294117647,9.176470588235293,4.414169664851663,8.828339329703326
1,36,1,../static/images/invador2.png,4,20,8,2.5,right,70,1,1000.0,0.616787923275086,0,0,2,860.0,174.0,4.942528735632184,39.54022988505747,7.621333940064188,60.970671520513505
1,37,1,../static/images/invador4.png,2,20,2,10.0,left,70,2,893.0,0.0828974851164016,0,0,2,860.0,176.0,4.886363636363637,9.772727272727273,6.68863198773163,13.37726397546326
1,38,1,../static/images/invador1.png,3,80,8,10.0,right,74,2,777.0,-0.49589962541077,0,0,2,880.0,180.0,4.888888888888889,39.111111111111114,5.935248782206871,47.48199025765497
1,39,1,../static/images/invador2.png,4,20,8,2.5,left,74,1,1006.0,0.646725704854077,0,0,2,960.0,190.0,5.052631578947368,40.421052631578945,7.331128418190921,58.649027345527365
1,40,1,../static/images/invador2.png,4,20,8,2.5,right,70,1,1025.0,0.741528679854217,0,0,2,960.0,192.0,5.0,40.0,6.433941935847938,51.4715354867835
1,41,1,../static/images/invador2.png,4,20,8,2.5,right,70,1,931.0,0.272503435116682,0,0,2,960.0,194.0,4.948453608247423,39.58762886597938,5.646553500706208,45.172428005649664
1,42,1,../static/images/invador2.png,4,20,8,2.5,right,70,1,982.0,0.526974578538111,0,0,2,960.0,196.0,4.8979591836734695,39.183673469387756,4.955525983020168,39.644207864161345
1,43,1,../static/images/invador4.png,2,20,2,10.0,right,74,2,888.0,0.0579493338005753,0,0,2,960.0,198.0,4.848484848484849,9.696969696969697,4.349066694456478,8.698133388912956
1,44,1,../static/images/invador2.png,4,20,8,2.5,right,70,1,885.0,0.0429804430110794,0,0,2,980.0,202.0,4.851485148514851,38.81188118811881,4.247137993039615,33.97710394431692
1,45,1,../static/images/invador2.png,4,20,8,2.5,right,70,1,1032.0,0.776456091696374,0,0,2,980.0,204.0,4.803921568627451,38.431372549019606,3.7273715152699154,29.818972122159323
1,46,1,../static/images/invador3.png,1,80,2,40.0,right,74,0,NaN,NaN,0,1,2,980.0,206.0,4.757281553398058,9.514563106796116,3.271214270789989,6.542428541579978
1,47,1,../static/images/invador1.png,3,80,8,10.0,left,70,2,1046.0,0.846310915380688,1,0,2,980.0,216.0,4.537037037037037,36.2962962962963,1.7031015456705254,13.624812365364203
1,48,1,../static/images/invador2.png,4,20,8,2.5,right,70,1,962.0,0.427181973274805,0,0,2,1060.0,226.0,4.6902654867256635,37.52212389380531,5.266958358501792,42.13566686801433
1,49,1,../static/images/invador2.png,4,20,8,2.5,left,70,2,722.0,-0.77032928988486,0,0,2,1060.0,228.0,4.649122807017544,37.19298245614035,4.622385848956627,36.97908679165302
1,50,1,../static/images/invador2.png,4,20,8,2.5,right,70,1,884.0,0.0379908127479142,0,0,2,1080.0,238.0,4.53781512605042,36.30252100840336,3.363577089551533,26.908616716412265
1,51,1,../static/images/invador1.png,3,80,8,10.0,right,70,1,486.0,-1.94788203199186,2,0,2,1080.0,240.0,4.5,36.0,2.9519411550920913,23.61552924073673
1,52,1,../static/images/invador3.png,1,80,2,40.0,left,70,2,933.0,0.282482695643012,0,0,2,1080.0,242.0,4.462809917355372,8.925619834710744,2.590681393982341,5.181362787964682
1,53,1,../static/images/invador2.png,4,20,8,2.5,right,70,1,886.0,0.0479700732742447,0,0,2,1160.0,246.0,4.715447154471545,37.72357723577236,6.305597964315798,50.44478371452639
1,54,1,../static/images/invador2.png,4,20,8,2.5,left,74,1,599.0,-1.38405381225419,2,0,2,1160.0,248.0,4.67741935483871,37.41935483870968,5.533916316694408,44.271330533555265
1,55,1,../static/images/invador4.png,2,20,2,10.0,right,74,2,885.0,0.0429804430110794,0,0,2,1160.0,250.0,4.64,9.28,4.856673383473401,9.713346766946803
1,56,1,../static/images/invador1.png,3,80,8,10.0,right,70,1,681.0,-0.974904130674636,2,0,2,1180.0,254.0,4.645669291338582,37.16535433070866,4.6134010466273905,36.907208373019124
1,57,1,../static/images/invador3.png,1,80,2,40.0,right,74,2,969.0,0.462109385116962,0,0,2,1180.0,256.0,4.609375,9.21875,4.0488111471528905,8.097622294305781
1,58,1,../static/images/invador2.png,4,20,8,2.5,right,70,1,975.0,0.492047166695954,0,0,2,1260.0,260.0,4.846153846153846,38.76923076923077,7.357709899557908,58.861679196463264
1,59,1,../static/images/invador4.png,2,20,2,10.0,left,70,2,1033.0,0.78144572195954,0,0,2,1260.0,262.0,4.809160305343512,9.618320610687023,6.457270364696579,12.914540729393158
1,60,1,../static/images/invador2.png,4,20,8,2.5,right,70,1,929.0,0.262524174590351,2,0,2,1280.0,266.0,4.81203007518797,38.49624060150376,5.7683100550991675,46.14648044079334
1,61,1,../static/images/invador2.png,4,20,8,2.5,left,74,1,1219.0,1.70951695090828,0,0,2,1280.0,268.0,4.776119402985074,38.208955223880594,5.062381920685835,40.49905536548668
1,62,1,../static/images/invador2.png,4,20,8,2.5,right,70,1,1046.0,0.846310915380688,0,0,2,1280.0,270.0,4.7407407407407405,37.925925925925924,4.442845558940091,35.54276447152073
1,63,1,../static/images/invador2.png,4,20,8,2.5,right,70,1,963.0,0.432171603537971,0,0,2,1280.0,272.0,4.705882352941177,37.64705882352941,3.8991283095289515,31.193026476231612
1,64,1,../static/images/invador2.png,4,20,8,2.5,right,70,1,627.0,-1.24434416488556,2,0,2,1280.0,274.0,4.671532846715328,37.372262773722625,3.421951398598032,27.375611188784255
1,65,1,../static/images/invador2.png,4,20,8,2.5,right,70,1,852.0,-0.121677355673375,0,0,2,1280.0,276.0,4.63768115942029,37.10144927536232,3.0031715924171953,24.025372739337563
1,66,1,../static/images/invador4.png,2,20,2,10.0,right,70,1,933.0,0.282482695643012,0,0,2,1280.0,278.0,4.60431654676259,9.20863309352518,2.6356422295175546,5.271284459035109
1,67,1,../static/images/invador3.png,1,80,2,40.0,right,70,1,567.0,-1.54372198067548,2,0,2,1280.0,280.0,4.571428571428571,9.142857142857142,2.3130912597721642,4.6261825195443285
1,68,1,../static/images/invador1.png,3,80,8,10.0,right,70,1,836.0,-0.201511439884019,0,0,2,1280.0,282.0,4.539007092198582,36.312056737588655,2.030014209103695,16.24011367282956
1,69,1,../static/images/invador2.png,4,20,8,2.5,right,70,1,1014.0,0.686642746959399,0,0,2,1280.0,284.0,4.507042253521127,36.056338028169016,1.781580243214791,14.252641945718327
1,70,1,../static/images/invador2.png,4,20,8,2.5,right,70,1,725.0,-0.755360399095364,2,0,2,1280.0,286.0,4.475524475524476,35.80419580419581,1.5635497272773728,12.508397818218983
1,71,1,../static/images/invador1.png,3,80,8,10.0,right,74,2,805.0,-0.356189978042142,0,0,2,1280.0,288.0,4.444444444444445,35.55555555555556,1.3722018747007458,10.977614997605967
1,72,1,../static/images/invador2.png,4,20,8,2.5,right,70,1,1036.0,0.796414612749035,0,0,2,1360.0,298.0,4.563758389261745,36.51006711409396,5.1055667160560505,40.844533728448404
1,73,1,../static/images/invador2.png,4,20,8,2.5,left,74,1,1125.0,1.24049170617074,0,0,2,1360.0,300.0,4.533333333333333,36.266666666666666,4.480745381460456,35.84596305168365
1,74,1,../static/images/invador4.png,2,20,2,10.0,right,70,1,589.0,-1.43395011488584,2,0,2,1360.0,302.0,4.503311258278146,9.006622516556291,3.932389936329801,7.864779872659602
1,75,1,../static/images/invador3.png,1,80,2,40.0,left,70,0,NaN,NaN,0,1,2,1360.0,304.0,4.473684210526316,8.947368421052632,3.4511424539610096,6.902284907922019
1,76,1,../static/images/invador2.png,4,20,8,2.5,right,74,2,1543.0,3.32615715617383,0,0,2,1360.0,314.0,4.3312101910828025,34.64968152866242,1.7967780649999212,14.37422451999937
1,77,1,../static/images/invador2.png,4,20,8,2.5,left,74,1,924.0,0.237576023274525,2,0,2,1380.0,324.0,4.2592592592592595,34.074074074074076,1.98542678851394,15.88341430811152
1,78,1,../static/images/invador2.png,4,20,8,2.5,right,70,1,1068.0,0.956082781170324,0,0,2,1380.0,326.0,4.233128834355829,33.86503067484663,1.7424494493206493,13.939595594565194
1,79,1,../static/images/invador4.png,2,20,2,10.0,left,70,2,1022.0,0.726559789064722,0,0,2,1380.0,328.0,4.2073170731707314,8.414634146341463,1.5292077758809373,3.0584155517618745
1,80,1,../static/images/invador1.png,3,80,8,10.0,right,74,2,1161.0,1.42011839564469,0,0,2,1400.0,332.0,4.216867469879518,33.734939759036145,2.212471861660549,17.699774893284392
1,81,1,../static/images/invador3.png,1,80,2,40.0,left,70,2,883.0,0.0330011824847489,0,0,2,1480.0,342.0,4.3274853801169595,8.654970760233919,5.515396538176632,11.030793076353264
1,82,1,../static/images/invador2.png,4,20,8,2.5,left,74,1,924.0,0.237576023274525,0,0,2,1560.0,346.0,4.508670520231214,36.06936416184971,8.415922991083322,67.32738392866658
1,83,1,../static/images/invador2.png,4,20,8,2.5,right,70,1,1178.0,1.5049421101185,0,0,2,1560.0,348.0,4.482758620689655,35.86206896551724,7.38597890699064,59.08783125592512
1,84,1,../static/images/invador2.png,4,20,8,2.5,left,70,2,1066.0,0.946103520643994,0,0,2,1560.0,350.0,4.457142857142857,35.65714285714286,6.482079799483581,51.85663839586865
1,85,1,../static/images/invador2.png,4,20,8,2.5,right,74,2,533.0,-1.7133694096231,1,0,2,1580.0,360.0,4.388888888888889,35.111111111111114,4.270616556355246,34.16493245084197
1,86,1,../static/images/invador2.png,4,20,8,2.5,right,74,2,544.0,-1.65848347672828,1,0,2,1600.0,370.0,4.324324324324325,34.5945945945946,3.1920065838193037,25.53605267055443
1,87,1,../static/images/invador4.png,2,20,2,10.0,left,74,1,1121.0,1.22053318511808,0,0,2,1620.0,380.0,4.2631578947368425,8.526315789473685,2.6659297989263107,5.331859597852621
1,88,1,../static/images/invador2.png,4,20,8,2.5,left,70,2,1104.0,1.13570947064427,0,0,2,1620.0,382.0,4.2408376963350785,33.92670157068063,2.339672224098252,18.717377792786017
1,89,1,../static/images/invador1.png,3,80,8,10.0,right,74,2,896.0,0.0978663759058974,0,0,2,1640.0,392.0,4.183673469387755,33.46938775510204,2.2502157493318573,18.00172599465486
1,90,1,../static/images/invador3.png,1,80,2,40.0,left,70,2,832.0,-0.22146996093668,0,0,2,1720.0,402.0,4.278606965174129,8.557213930348258,5.533805586471262,11.067611172942524
1,91,1,../static/images/invador2.png,4,20,8,2.5,left,70,2,672.0,-1.01981080304312,1,0,2,1800.0,406.0,4.433497536945813,35.467980295566505,8.42920601982964,67.43364815863713
1,92,1,../static/images/invador4.png,2,20,2,10.0,left,70,2,931.0,0.272503435116682,0,0,2,1820.0,416.0,4.375,8.75,5.220299878281296,10.440599756562593
1,93,1,../static/images/invador3.png,1,80,2,40.0,left,74,1,718.0,-0.790287810937521,2,0,2,1840.0,420.0,4.380952380952381,8.761904761904763,4.875775347903232,9.751550695806465
1,94,1,../static/images/invador2.png,4,20,8,2.5,left,74,1,685.0,-0.954945609621975,2,0,2,1840.0,422.0,4.360189573459715,34.88151658767772,4.279075974553637,34.23260779642909
1,95,1,../static/images/invador2.png,4,20,8,2.5,left,74,1,1211.0,1.66959990880296,0,0,2,1840.0,424.0,4.339622641509434,34.716981132075475,3.755400913595487,30.043207308763897
1,96,1,../static/images/invador1.png,3,80,8,10.0,right,74,2,905.0,0.142773048274385,0,0,2,1840.0,426.0,4.31924882629108,34.55399061032864,3.2958134199299773,26.36650735943982
1,97,1,../static/images/invador2.png,4,20,8,2.5,left,74,1,1021.0,0.721570158801556,0,0,2,1920.0,436.0,4.4036697247706424,35.22935779816514,6.043781087204483,48.35024869763586
1,98,1,../static/images/invador2.png,4,20,8,2.5,right,70,1,971.0,0.472088645643293,0,0,2,1920.0,438.0,4.383561643835616,35.06849315068493,5.304140695661852,42.433125565294816
1,99,1,../static/images/invador2.png,4,20,8,2.5,left,74,1,995.0,0.591839771959259,0,0,2,1920.0,440.0,4.363636363636363,34.90909090909091,4.6550177965478525,37.24014237238282
1,100,1,../static/images/invador4.png,2,20,2,10.0,right,74,2,1089.0,1.06086501669679,0,0,2,1920.0,442.0,4.343891402714932,8.687782805429864,4.085334822264426,8.170669644528852
1,101,1,../static/images/invador3.png,1,80,2,40.0,left,70,2,804.0,-0.361179608305308,0,0,2,1940.0,446.0,4.349775784753363,8.699551569506726,4.056842547909533,8.113685095819067
1,102,1,../static/images/invador2.png,4,20,8,2.5,right,70,1,994.0,0.586850141696094,0,0,2,2020.0,450.0,4.488888888888889,35.91111111111111,7.363504948026266,58.90803958421013
1,103,1,../static/images/invador1.png,3,80,8,10.0,left,70,2,1199.0,1.60972434564497,0,0,2,2020.0,452.0,4.469026548672566,35.75221238938053,6.462356212772617,51.69884970218094
1,104,1,../static/images/invador2.png,4,20,8,2.5,right,74,2,563.0,-1.56368050172814,1,0,2,2100.0,462.0,4.545454545454546,36.36363636363637,7.588217625064532,60.705741000516255
1,105,1,../static/images/invador2.png,4,20,8,2.5,left,74,1,939.0,0.312420477222004,0,0,2,2120.0,472.0,4.491525423728813,35.932203389830505,4.810119662897088,38.4809573031767
1,106,1,../static/images/invador2.png,4,20,8,2.5,right,70,1,952.0,0.377285670643153,0,0,2,2120.0,474.0,4.472573839662447,35.780590717299575,4.221455259025086,33.771642072200684
1,107,1,../static/images/invador1.png,3,80,8,10.0,left,70,2,933.0,0.282482695643012,1,0,2,2120.0,476.0,4.453781512605042,35.63025210084034,3.7048318447066095,29.638654757652876
1,108,1,../static/images/invador2.png,4,20,8,2.5,left,74,1,963.0,0.432171603537971,0,0,2,2200.0,486.0,4.526748971193416,36.21399176954733,6.243274048837857,49.946192390702855
1,109,1,../static/images/invador4.png,2,20,2,10.0,left,74,1,878.0,0.00805303116892254,0,0,2,2200.0,488.0,4.508196721311475,9.01639344262295,5.479219627381916,10.958439254763832
1,110,1,../static/images/invador3.png,1,80,2,40.0,left,70,2,809.0,-0.336231456989481,0,0,2,2200.0,490.0,4.489795918367347,8.979591836734693,4.808670497281084,9.617340994562168
1,111,1,../static/images/invador2.png,4,20,8,2.5,right,70,1,814.0,-0.311283305673655,0,0,2,2280.0,494.0,4.615384615384615,36.92307692307692,7.905985586023293,63.247884688186346
1,112,1,../static/images/invador2.png,4,20,8,2.5,left,74,1,890.0,0.0679285943269058,0,0,2,2280.0,496.0,4.596774193548387,36.774193548387096,6.938447849298049,55.50758279438439
1,113,1,../static/images/invador2.png,4,20,8,2.5,right,70,1,935.0,0.292461956169343,0,0,2,2280.0,498.0,4.578313253012048,36.626506024096386,6.089317774944762,48.714542199558096
1,114,1,../static/images/invador2.png,4,20,8,2.5,left,74,1,900.0,0.117824896958559,0,0,2,2280.0,500.0,4.56,36.48,5.344104585005929,42.75283668004743
1,115,1,../static/images/invador3.png,1,80,2,40.0,right,74,2,783.0,-0.465961843831778,0,0,2,2280.0,502.0,4.54183266932271,9.08366533864542,4.6900908888336765,9.380181777667353
1,116,1,../static/images/invador4.png,2,20,2,10.0,left,70,2,1158.0,1.4051495048552,0,0,2,2360.0,506.0,4.664031620553359,9.328063241106719,7.8204245987019805,15.640849197403961
1,117,1,../static/images/invador2.png,4,20,8,2.5,left,74,1,927.0,0.252544914064021,0,0,2,2380.0,510.0,4.666666666666667,37.333333333333336,6.751892507932601,54.015140063460805
1,118,1,../static/images/invador1.png,3,80,8,10.0,right,70,1,1067.0,0.951093150907159,0,0,2,2380.0,512.0,4.6484375,37.1875,5.925593152253761,47.40474521803009
1,119,1,../static/images/invador2.png,4,20,8,2.5,left,74,1,694.0,-0.910038937253487,1,0,2,2380.0,514.0,4.63035019455253,37.04280155642024,5.2004166483373115,41.60333318669849
1,120,1,../static/images/invador4.png,2,20,2,10.0,right,70,1,6.0,-4.34290455831119,0,0,2,2380.0,516.0,4.612403100775194,9.224806201550388,4.5639875403895624,9.127975080779125
1,121,1,../static/images/invador2.png,4,20,8,2.5,left,70,2,1019.0,0.711590898275226,0,0,2,2380.0,518.0,4.594594594594595,36.75675675675676,4.005444885938317,32.04355908750654
1,122,1,../static/images/invador1.png,3,80,8,10.0,left,70,2,1071.0,0.97105167195982,0,0,2,2400.0,528.0,4.545454545454546,36.36363636363637,3.062672845610246,24.501382764881967
1,123,1,../static/images/invador3.png,1,80,2,40.0,left,70,2,1138.0,1.30535689959189,0,0,2,2480.0,538.0,4.609665427509293,9.219330855018587,5.930070063860367,11.860140127720735
1,124,1,../static/images/invador2.png,4,20,8,2.5,right,70,1,538.0,-1.68842125830727,2,0,2,2560.0,542.0,4.723247232472325,37.7859778597786,8.715130221888492,69.72104177510793
1,125,1,../static/images/invador2.png,4,20,8,2.5,right,70,1,1110.0,1.16564725222327,0,0,2,2560.0,544.0,4.705882352941177,37.64705882352941,7.648569035000069,61.18855228000055
1,126,1,../static/images/invador2.png,4,20,8,2.5,right,70,1,1074.0,0.986020562749316,0,0,2,2560.0,546.0,4.688644688644689,37.50915750915751,6.712534040654337,53.70027232523469
1,127,1,../static/images/invador2.png,4,20,8,2.5,left,74,1,827.0,-0.246418112252506,0,0,2,2560.0,548.0,4.671532846715328,37.372262773722625,5.8910513902347,47.1284111218776
1,128,1,../static/images/invador1.png,3,80,8,10.0,left,74,1,855.0,-0.106708464883879,0,0,2,2560.0,550.0,4.654545454545454,37.236363636363635,5.170102121225623,41.360816969804986
1,129,1,../static/images/invador2.png,4,20,8,2.5,right,70,1,770.0,-0.530827037252927,0,0,2,2560.0,552.0,4.63768115942029,37.10144927536232,4.53738291745521,36.29906333964168
1,130,1,../static/images/invador4.png,2,20,2,10.0,left,74,1,893.0,0.0828974851164016,0,0,2,2560.0,554.0,4.620938628158845,9.24187725631769,3.982096147596752,7.964192295193504
1,131,1,../static/images/invador2.png,4,20,8,2.5,right,70,1,899.0,0.112835266695393,0,0,2,2560.0,556.0,4.60431654676259,36.83453237410072,3.4947655988440003,27.958124790752002
1,132,1,../static/images/invador3.png,1,80,2,40.0,right,70,1,523.0,-1.76326571225475,2,0,2,2560.0,558.0,4.587813620071684,9.175627240143369,3.0670747611743137,6.134149522348627
1,133,1,../static/images/invador3.png,1,80,2,40.0,right,74,2,736.0,-0.700474466200546,0,0,2,2560.0,560.0,4.571428571428571,9.142857142857142,2.691724902449568,5.383449804899136
1,134,1,../static/images/invador2.png,4,20,8,2.5,right,74,2,627.0,-1.24434416488556,1,0,2,2640.0,564.0,4.680851063829787,37.4468085106383,6.37850579779629,51.02804638237032
1,135,1,../static/images/invador1.png,3,80,8,10.0,right,74,2,1111.0,1.17063688248643,0,0,2,2660.0,574.0,4.634146341463414,37.073170731707314,4.220099799424059,33.76079839539247
1,136,1,../static/images/invador4.png,2,20,2,10.0,left,74,1,937.0,0.302441216695674,0,0,2,2740.0,584.0,4.691780821917808,9.383561643835616,6.494588718531503,12.989177437063006
1,137,1,../static/images/invador2.png,4,20,8,2.5,left,74,1,1076.0,0.995999823275646,0,0,2,2740.0,586.0,4.675767918088737,37.406143344709896,5.699778305418922,45.59822644335138
1,138,1,../static/images/invador2.png,4,20,8,2.5,right,70,1,1008.0,0.656704965380408,0,0,2,2740.0,588.0,4.659863945578231,37.27891156462585,5.002237114449639,40.01789691559711
1,139,1,../static/images/invador2.png,4,20,8,2.5,left,74,1,856.0,-0.101718834620713,0,0,2,2740.0,590.0,4.6440677966101696,37.152542372881356,4.390061298592623,35.12049038874098
1,140,1,../static/images/invador2.png,4,20,8,2.5,right,70,1,833.0,-0.216480330673515,0,0,2,2740.0,592.0,4.628378378378378,37.027027027027025,3.8528038084658407,30.822430467726726
1,141,1,../static/images/invador2.png,4,20,8,2.5,left,74,1,827.0,-0.246418112252506,0,0,2,2740.0,594.0,4.6127946127946124,36.9023569023569,3.3812961088465086,27.05036887077207
1,142,1,../static/images/invador4.png,2,20,2,10.0,right,74,2,1009.0,0.661694595643573,0,0,2,2740.0,596.0,4.597315436241611,9.194630872483222,2.967491713587447,5.934983427174894
1,143,1,../static/images/invador3.png,1,80,2,40.0,left,70,2,805.0,-0.356189978042142,0,0,2,2760.0,600.0,4.6,9.2,3.2502640703701413,6.500528140740283
1,144,1,../static/images/invador2.png,4,20,8,2.5,right,70,1,748.0,-0.640598903042563,0,0,2,2840.0,604.0,4.701986754966887,37.615894039735096,6.781519126062624,54.25215300850099
1,145,1,../static/images/invador1.png,3,80,8,10.0,right,70,1,616.0,-1.29923009778038,2,0,2,2840.0,606.0,4.686468646864687,37.491749174917494,5.951594052787862,47.6127524223029
1,146,1,../static/images/invador2.png,4,20,8,2.5,left,74,1,927.0,0.252544914064021,0,0,2,2840.0,608.0,4.671052631578948,37.36842105263158,5.22323554807191,41.78588438457528
1,147,1,../static/images/invador2.png,4,20,8,2.5,left,74,1,1303.0,2.12864589301416,0,0,2,2840.0,610.0,4.655737704918033,37.24590163934426,4.584013853878772,36.672110831030174
1,148,1,../static/images/invador1.png,3,80,8,10.0,right,70,1,621.0,-1.27428194646455,2,0,2,2840.0,612.0,4.640522875816994,37.12418300653595,4.02302037102448,32.18416296819584
1,149,1,../static/images/invador3.png,1,80,2,40.0,left,70,2,931.0,0.272503435116682,0,0,2,2840.0,614.0,4.625407166123779,9.250814332247558,3.5306814991371023,7.0613629982742045
1,150,1,../static/images/invador4.png,2,20,2,10.0,left,70,2,607.0,-1.34413677014887,1,0,2,2920.0,618.0,4.724919093851133,9.449838187702266,6.983854016365843,13.967708032731686
1,151,1,../static/images/invador2.png,4,20,8,2.5,left,74,1,872.0,-0.0218847504100691,0,0,2,2940.0,622.0,4.726688102893891,37.81350482315113,6.14826591541951,49.18612732335608
1,152,1,../static/images/invador2.png,4,20,8,2.5,right,70,1,976.0,0.497036796959119,0,0,2,2940.0,624.0,4.711538461538462,37.69230769230769,5.395838628035327,43.16670902428262
1,153,1,../static/images/invador2.png,4,20,8,2.5,left,74,1,970.0,0.467099015380127,0,0,2,2940.0,626.0,4.696485623003195,37.57188498402556,4.735493698601937,37.8839495888155
1,154,1,../static/images/invador2.png,4,20,8,2.5,right,70,1,819.0,-0.286335154357828,0,0,2,2940.0,628.0,4.681528662420382,37.452229299363054,4.155962050641192,33.24769640512954
1,155,1,../static/images/invador3.png,1,80,2,40.0,left,70,2,876.0,-0.001926229357408,0,0,2,2940.0,630.0,4.666666666666667,9.333333333333334,3.6473537218450893,7.294707443690179
1,156,1,../static/images/invador2.png,4,20,8,2.5,left,74,1,583.0,-1.46388789646483,2,0,2,3020.0,634.0,4.763406940063091,38.10725552050473,7.068038731584354,56.54430985267483
1,157,1,../static/images/invador4.png,2,20,2,10.0,left,74,1,989.0,0.561901990380268,0,0,2,3020.0,636.0,4.748427672955975,9.49685534591195,6.203049272264671,12.406098544529343
1,158,1,../static/images/invador2.png,4,20,8,2.5,right,70,1,865.0,-0.056812162252226,0,0,2,3020.0,638.0,4.733542319749216,37.86833855799373,5.44391757535236,43.55134060281888
1,159,1,../static/images/invador2.png,4,20,8,2.5,right,70,1,841.0,-0.176563288568193,0,0,2,3020.0,640.0,4.71875,37.75,4.777688724760109,38.221509798080874
1,160,1,../static/images/invador1.png,3,80,8,10.0,left,70,2,815.0,-0.30629367541049,0,0,2,3020.0,642.0,4.70404984423676,37.63239875389408,4.1929932323088925,33.54394585847114
1,161,1,../static/images/invador2.png,4,20,8,2.5,right,70,1,913.0,0.182690090379707,0,0,2,3100.0,652.0,4.754601226993865,38.03680981595092,6.481367873146675,51.8509429851734
1,162,1,../static/images/invador1.png,3,80,8,10.0,right,70,1,615.0,-1.30421972804354,2,0,2,3100.0,654.0,4.740061162079511,37.920489296636084,5.688175432478142,45.50540345982514
1,163,1,../static/images/invador4.png,2,20,2,10.0,left,70,2,1038.0,0.806393873275366,0,0,2,3100.0,656.0,4.725609756097561,9.451219512195122,4.992054205826082,9.984108411652164
1,164,1,../static/images/invador2.png,4,20,8,2.5,right,70,1,735.0,-0.705464096463711,0,0,2,3120.0,660.0,4.7272727272727275,37.81818181818182,4.711084931542594,37.68867945234075
1,165,1,../static/images/invador2.png,4,20,8,2.5,right,70,1,777.0,-0.49589962541077,0,0,2,3120.0,662.0,4.712990936555891,37.70392749244713,4.134540438438114,33.07632350750491
1,166,1,../static/images/invador2.png,4,20,8,2.5,left,70,2,626.0,-1.24933379514873,1,0,2,3120.0,664.0,4.698795180722891,37.59036144578313,3.6285536952700714,29.02842956216057
1,167,1,../static/images/invador3.png,1,80,2,40.0,left,70,2,842.0,-0.171573658305027,0,0,2,3140.0,674.0,4.658753709198813,9.317507418397627,2.8788494887993714,5.757698977598743
1,168,1,../static/images/invador2.png,4,20,8,2.5,left,74,1,1079.0,1.01096871406514,0,0,2,3220.0,678.0,4.7492625368731565,37.99410029498525,6.513525339265617,52.108202714124936
1,169,1,../static/images/invador2.png,4,20,8,2.5,left,74,1,978.0,0.50701605748545,0,0,2,3220.0,680.0,4.735294117647059,37.88235294117647,5.716397454793274,45.73117963834619
1,170,1,../static/images/invador2.png,4,20,8,2.5,left,74,1,921.0,0.222607132485029,0,0,2,3220.0,682.0,4.721407624633431,37.77126099706745,5.0168224055533175,40.13457924442654
1,171,1,../static/images/invador4.png,2,20,2,10.0,right,70,1,783.0,-0.465961843831778,0,0,2,3220.0,684.0,4.707602339181286,9.415204678362572,4.402861635829337,8.805723271658675
1,172,1,../static/images/invador2.png,4,20,8,2.5,right,70,1,969.0,0.462109385116962,0,0,2,3220.0,686.0,4.6938775510204085,37.55102040816327,3.864037635216977,30.912301081735816
1,173,1,../static/images/invador1.png,3,80,8,10.0,right,70,1,818.0,-0.291324784620994,0,0,2,3220.0,688.0,4.680232558139535,37.44186046511628,3.3911551353034506,27.129241082427605
1,174,1,../static/images/invador3.png,1,80,2,40.0,left,70,2,965.0,0.442150864064301,0,0,2,3220.0,690.0,4.666666666666667,9.333333333333334,2.976144188370259,5.952288376740518
1,175,1,../static/images/invador3.png,1,80,2,40.0,left,70,2,872.0,-0.0218847504100691,1,0,2,3300.0,694.0,4.755043227665706,9.510086455331413,6.583728223770062,13.167456447540124
1,176,1,../static/images/invador4.png,2,20,2,10.0,left,74,1,918.0,0.207638241695533,0,0,2,3380.0,698.0,4.842406876790831,9.684813753581661,9.186776555223371,18.373553110446743
1,177,1,../static/images/invador2.png,4,20,8,2.5,right,70,1,971.0,0.472088645643293,0,0,2,3380.0,700.0,4.828571428571428,38.628571428571426,8.062495097924092,64.49996078339274
1,178,1,../static/images/invador2.png,4,20,8,2.5,left,74,1,947.0,0.352337519327326,0,0,2,3380.0,702.0,4.814814814814815,38.51851851851852,7.07580366337423,56.60642930699384
1,179,1,../static/images/invador2.png,4,20,8,2.5,left,74,1,871.0,-0.0268743806732344,0,0,2,3380.0,704.0,4.801136363636363,38.40909090909091,6.209863928538856,49.67891142831085
1,180,1,../static/images/invador2.png,4,20,8,2.5,left,74,1,880.0,0.0180322916952531,0,0,2,3380.0,706.0,4.787535410764873,38.30028328611898,5.449898251215584,43.59918600972467
1,181,1,../static/images/invador1.png,3,80,8,10.0,left,70,2,934.0,0.287472325906178,0,0,2,3380.0,708.0,4.7740112994350286,38.19209039548023,4.782937483074808,38.263499864598465
1,182,1,../static/images/invador2.png,4,20,8,2.5,left,74,1,897.0,0.102856006169063,0,0,2,3460.0,718.0,4.818941504178273,38.551532033426184,6.769104851861375,54.152838814891
1,183,1,../static/images/invador4.png,2,20,2,10.0,left,74,1,823.0,-0.266376633305167,0,0,2,3460.0,720.0,4.805555555555555,9.61111111111111,5.940699042520638,11.881398085041276
1,184,1,../static/images/invador1.png,3,80,8,10.0,right,74,2,1055.0,0.891217587749176,0,0,2,3460.0,722.0,4.792243767313019,38.337950138504155,5.213673873599553,41.70939098879642
1,185,1,../static/images/invador2.png,4,20,8,2.5,left,74,1,516.0,-1.79819312409691,2,0,2,3540.0,732.0,4.836065573770492,38.68852459016394,6.979190444646045,55.83352355716836
1,186,1,../static/images/invador2.png,4,20,8,2.5,left,74,1,988.0,0.556912360117102,0,0,2,3540.0,734.0,4.822888283378747,38.583106267029976,6.12507427487652,49.00059419901216
1,187,1,../static/images/invador2.png,4,20,8,2.5,right,70,1,1029.0,0.761487200906878,0,0,2,3540.0,736.0,4.809782608695652,38.47826086956522,5.375485189909703,43.00388151927763
1,188,1,../static/images/invador3.png,1,80,2,40.0,left,70,2,824.0,-0.261387003042002,1,0,2,3540.0,738.0,4.796747967479675,9.59349593495935,4.717631122525627,9.435262245051254
1,189,1,../static/images/invador1.png,3,80,8,10.0,left,74,1,925.0,0.24256565353769,0,0,2,3620.0,742.0,4.878706199460916,39.02964959568733,7.8402962243262815,62.72236979461025
1,190,1,../static/images/invador2.png,4,20,8,2.5,left,70,2,535.0,-1.70339014909677,1,0,2,3620.0,744.0,4.865591397849462,38.924731182795696,6.880797578445778,55.04638062756622
1,191,1,../static/images/invador4.png,2,20,2,10.0,right,70,1,523.0,-1.76326571225475,2,0,2,3640.0,754.0,4.827586206896552,9.655172413793103,4.465085523430476,8.930171046860952
1,192,1,../static/images/invador2.png,4,20,8,2.5,right,70,1,868.0,-0.0418432714627302,0,0,2,3640.0,756.0,4.814814814814815,38.51851851851852,3.9186465381049786,31.34917230483983
1,193,1,../static/images/invador3.png,1,80,2,40.0,right,70,1,539.0,-1.6834316280441,2,0,2,3640.0,758.0,4.802110817941952,9.604221635883905,3.43908097840967,6.87816195681934
1,194,1,../static/images/invador2.png,4,20,8,2.5,left,74,1,867.0,-0.0468329017258954,0,0,2,3640.0,760.0,4.7894736842105265,38.31578947368421,3.0182048472733074,24.14563877818646
1,195,1,../static/images/invador2.png,4,20,8,2.5,left,74,1,902.0,0.127804157484889,0,0,2,3640.0,762.0,4.776902887139108,38.21522309711286,2.6488357085201906,21.190685668161525
1,196,1,../static/images/invador1.png,3,80,8,10.0,left,70,2,1069.0,0.961072411433489,0,0,2,3640.0,764.0,4.7643979057591626,38.1151832460733,2.3246701154397527,18.59736092351802
1,197,1,../static/images/invador4.png,2,20,2,10.0,right,70,1,874.0,-0.0119054898837385,0,0,2,3720.0,774.0,4.8062015503875966,9.612403100775193,5.570119652297297,11.140239304594594
1,198,1,../static/images/invador2.png,4,20,8,2.5,right,70,1,657.0,-1.0946552569906,2,0,2,3720.0,776.0,4.793814432989691,38.350515463917525,4.8884461401168435,39.10756912093475
1,199,1,../static/images/invador2.png,4,20,8,2.5,left,70,2,1226.0,1.74444436275044,0,0,2,3720.0,778.0,4.781491002570694,38.25192802056555,4.290196110054371,34.32156888043497
1,200,1,../static/images/invador3.png,1,80,2,40.0,right,74,2,808.0,-0.341221087252646,0,0,2,3740.0,788.0,4.746192893401015,9.49238578680203,3.2015562346865747,6.403112469373149
1,201,1,../static/images/invador2.png,4,20,8,2.5,right,70,1,987.0,0.551922729853937,0,0,2,3820.0,792.0,4.8232323232323235,38.58585858585859,6.74637404027649,53.97099232221192
1,202,1,../static/images/invador2.png,4,20,8,2.5,right,74,2,660.0,-1.07968636620111,1,0,2,3820.0,794.0,4.811083123425693,38.48866498740554,5.920750036917495,47.36600029533996
1,203,1,../static/images/invador2.png,4,20,8,2.5,right,70,1,916.0,0.197658981169203,0,0,2,3840.0,804.0,4.776119402985074,38.208955223880594,3.996835890243638,31.974687121949103
1,204,1,../static/images/invador1.png,3,80,8,10.0,right,74,2,1034.0,0.786435352222705,0,0,2,3840.0,806.0,4.764267990074441,38.11414392059553,3.5077014857811446,28.061611886249157
1,205,1,../static/images/invador3.png,1,80,2,40.0,left,70,2,571.0,-1.52376345962282,1,0,2,3920.0,816.0,4.803921568627451,9.607843137254902,6.147126499613473,12.294252999226947
1,206,1,../static/images/invador4.png,2,20,2,10.0,left,70,2,1038.0,0.806393873275366,0,0,2,4000.0,820.0,4.878048780487805,9.75609756097561,8.871747056693756,17.743494113387513
1,207,1,../static/images/invador2.png,4,20,8,2.5,left,74,1,1034.0,0.786435352222705,0,0,2,4020.0,824.0,4.878640776699029,39.029126213592235,7.510473082422696,60.08378465938157
1,208,1,../static/images/invador2.png,4,20,8,2.5,left,74,1,1040.0,0.816373133801697,1,0,2,4020.0,826.0,4.86682808716707,38.93462469733656,6.591338327010341,52.73070661608273
1,209,1,../static/images/invador2.png,4,20,8,2.5,left,70,2,0.0,-4.37284233989019,0,0,2,4020.0,828.0,4.855072463768116,38.84057971014493,5.784687657398665,46.27750125918932
1,210,1,../static/images/invador2.png,4,20,8,2.5,left,74,1,1020.0,0.716580528538391,0,0,2,4040.0,838.0,4.821002386634845,38.56801909307876,3.93047338573808,31.44378708590464
1,211,0,../static/images/invador4.png,2,20,2,10.0,right,70,1,739.0,-0.68550557541105,2,0,2,4040.0,840.0,4.809523809523809,9.619047619047619,3.4494604516114595,6.898920903222919
1,212,0,../static/images/invador3.png,1,80,2,40.0,left,70,2,552.0,-1.61856643462296,1,0,2,4040.0,842.0,4.798099762470309,9.596199524940618,3.027314076316315,6.05462815263263
1,213,0,../static/images/invador2.png,4,20,8,2.5,left,74,1,987.0,0.551922729853937,0,0,2,4120.0,846.0,4.869976359338062,38.959810874704495,6.620649800684588,52.965198405476706
1,214,0,../static/images/invador3.png,1,80,2,40.0,right,74,2,1055.0,0.891217587749176,0,0,2,4120.0,848.0,4.8584905660377355,9.716981132075471,5.810411980983871,11.620823961967742
1,215,0,../static/images/invador1.png,3,80,8,10.0,right,70,1,867.0,-0.0468329017258954,0,0,2,4200.0,852.0,4.929577464788732,39.436619718309856,8.628791062517514,69.03032850014012
1,216,0,../static/images/invador3.png,1,80,2,40.0,right,74,2,1061.0,0.921155369328167,0,0,2,4200.0,854.0,4.918032786885246,9.836065573770492,7.572796097125401,15.145592194250803
1,217,0,../static/images/invador3.png,1,80,2,40.0,left,70,2,599.0,-1.38405381225419,1,0,2,4280.0,858.0,4.988344988344989,9.976689976689977,9.90043740197517,19.80087480395034
1,218,0,../static/images/invador4.png,2,20,2,10.0,left,74,1,1198.0,1.60473471538181,0,0,2,4360.0,862.0,5.058004640371229,10.116009280742459,11.579944450281396,23.15988890056279
1,219,0,../static/images/invador3.png,1,80,2,40.0,right,74,2,753.0,-0.615650751726736,0,0,2,4360.0,864.0,5.046296296296297,10.092592592592593,10.162786131066076,20.32557226213215
1,220,0,../static/images/invador3.png,1,80,2,40.0,left,70,2,1062.0,0.926144999591332,0,0,2,4440.0,868.0,5.11520737327189,10.23041474654378,11.769241890013332,23.538483780026663
1,221,0,../static/images/invador3.png,1,80,2,40.0,left,70,2,717.0,-0.795277441200686,1,0,2,4520.0,872.0,5.18348623853211,10.36697247706422,12.928378293170681,25.856756586341362
1,222,0,../static/images/invador2.png,4,20,8,2.5,right,70,1,1092.0,1.07583390748629,0,0,2,4600.0,876.0,5.251141552511416,42.009132420091326,13.764751902366774,110.11801521893419
1,223,0,../static/images/invador1.png,3,80,8,10.0,left,70,2,1159.0,1.41013913511836,0,0,2,4600.0,878.0,5.239179954441913,41.913439635535305,12.08021595712742,96.64172765701936
1,224,0,../static/images/invador3.png,1,80,2,40.0,left,70,2,1082.0,1.02593760485464,0,0,2,4680.0,888.0,5.27027027027027,10.54054054054054,10.32824939515969,20.65649879031938
1,225,0,../static/images/invador1.png,3,80,8,10.0,left,70,2,548.0,-1.63852495567562,1,0,2,4760.0,892.0,5.336322869955157,42.690582959641254,11.888631728001668,95.10905382401334
1,226,0,../static/images/invador3.png,1,80,2,40.0,right,74,2,988.0,0.556912360117102,0,0,2,4840.0,902.0,5.365853658536586,10.731707317073171,10.234806892437678,20.469613784875357
1,227,0,../static/images/invador2.png,4,20,8,2.5,right,70,1,507.0,-1.84309979646539,2,0,2,4920.0,906.0,5.430463576158941,43.443708609271525,11.821208391937816,94.56966713550253
1,228,0,../static/images/invador3.png,1,80,2,40.0,right,74,2,966.0,0.447140494327466,0,0,2,4920.0,908.0,5.418502202643172,10.837004405286343,10.374524093257476,20.74904818651495
1,229,0,../static/images/invador4.png,2,20,2,10.0,right,70,1,947.0,0.352337519327326,0,0,2,5000.0,912.0,5.482456140350878,10.964912280701755,11.922021186012897,23.844042372025793
1,230,0,../static/images/invador3.png,1,80,2,40.0,right,74,2,968.0,0.457119754853797,0,0,2,5000.0,914.0,5.470459518599562,10.940919037199125,10.46299937652495,20.9259987530499
1,231,0,../static/images/invador3.png,1,80,2,40.0,left,70,2,1061.0,0.921155369328167,0,0,2,5080.0,918.0,5.533769063180828,11.067538126361656,11.985860430289495,23.97172086057899
1,232,0,../static/images/invador2.png,4,20,8,2.5,right,74,2,525.0,-1.75328645172842,1,0,2,5160.0,922.0,5.596529284164859,44.77223427331887,13.084679164971506,104.67743331977205
1,233,0,../static/images/invador3.png,1,80,2,40.0,right,74,2,960.0,0.417202712748475,0,0,2,5180.0,932.0,5.55793991416309,11.11587982832618,7.490941172829768,14.981882345659535
1,234,0,../static/images/invador3.png,1,80,2,40.0,right,74,2,946.0,0.347347889064161,0,0,2,5260.0,936.0,5.619658119658119,11.239316239316238,9.84137507050397,19.68275014100794
1,235,0,../static/images/invador3.png,1,80,2,40.0,right,74,2,952.0,0.377285670643153,0,0,2,5340.0,940.0,5.680851063829787,11.361702127659575,11.537328089337553,23.074656178675106
1,236,0,../static/images/invador4.png,2,20,2,10.0,left,70,2,712.0,-0.820225592516513,1,0,2,5420.0,944.0,5.741525423728813,11.483050847457626,12.761041142887729,25.522082285775458
1,237,0,../static/images/invador1.png,3,80,8,10.0,left,70,2,468.0,-2.03769537672884,1,0,2,5440.0,948.0,5.738396624472574,45.90717299578059,10.316788994195068,82.53431195356055
1,238,0,../static/images/invador4.png,2,20,2,10.0,left,74,1,1100.0,1.11575094959161,0,0,2,5520.0,958.0,5.762004175365345,11.52400835073069,9.468162792333334,18.93632558466667
1,239,0,../static/images/invador3.png,1,80,2,40.0,right,74,2,801.0,-0.376148499094803,0,0,2,5520.0,960.0,5.75,11.5,8.309445172706576,16.618890345413153
1,240,0,../static/images/invador3.png,1,80,2,40.0,left,70,2,1013.0,0.681653116696234,0,0,2,5600.0,964.0,5.809128630705394,11.618257261410788,10.431965740121196,20.863931480242393
1,241,0,../static/images/invador3.png,1,80,2,40.0,left,74,1,563.0,-1.56368050172814,2,0,2,5680.0,968.0,5.867768595041323,11.735537190082646,11.96346814374342,23.92693628748684
1,242,0,../static/images/invador2.png,4,20,8,2.5,left,74,1,993.0,0.581860511432929,0,0,2,5680.0,970.0,5.855670103092783,46.845360824742265,10.499374038683921,83.99499230947137
1,243,0,../static/images/invador1.png,3,80,8,10.0,left,74,1,1206.0,1.64465175748713,0,0,2,5680.0,972.0,5.843621399176954,46.748971193415635,9.214456366638206,73.71565093310565
1,244,0,../static/images/invador3.png,1,80,2,40.0,left,70,2,889.0,0.0629389640637405,0,0,2,5680.0,974.0,5.831622176591376,11.663244353182751,8.086787442741892,16.173574885483784
1,245,0,../static/images/invador3.png,1,80,2,40.0,right,74,2,1068.0,0.956082781170324,0,0,2,5760.0,978.0,5.889570552147239,11.779141104294478,10.271307297578357,20.542614595156714
1,246,0,../static/images/invador2.png,4,20,8,2.5,right,70,1,999.0,0.61179829301192,0,0,2,5840.0,982.0,5.94704684317719,47.57637474541752,11.847545219511753,94.78036175609402
1,247,0,../static/images/invador3.png,1,80,2,40.0,right,74,2,811.0,-0.326252196463151,0,0,2,5840.0,984.0,5.934959349593496,11.869918699186991,10.397637809143927,20.795275618287853
1,248,0,../static/images/invador3.png,1,80,2,40.0,right,74,2,879.0,0.0130426614320878,0,0,2,5920.0,988.0,5.991902834008097,11.983805668016194,11.938698862535887,23.877397725071773
1,249,0,../static/images/invador1.png,3,80,8,10.0,left,70,2,1212.0,1.67458953906612,0,0,2,6000.0,992.0,6.048387096774194,48.38709677419355,13.050649787126078,104.40519829700862
1,250,0,../static/images/invador4.png,2,20,2,10.0,left,74,1,1125.0,1.24049170617074,0,0,2,6080.0,1002.0,6.067864271457085,12.13572854291417,10.801564793900893,21.603129587801785
1,251,0,../static/images/invador3.png,1,80,2,40.0,left,70,2,856.0,-0.101718834620713,0,0,2,6080.0,1004.0,6.055776892430279,12.111553784860558,9.479664894126504,18.959329788253008
1,252,0,../static/images/invador2.png,4,20,8,2.5,left,74,1,1070.0,0.966062041696655,0,0,2,6160.0,1008.0,6.111111111111111,48.888888888888886,11.27633650553798,90.21069204430384
1,253,0,../static/images/invador1.png,3,80,8,10.0,right,70,1,1010.0,0.666684225906738,0,0,2,6160.0,1010.0,6.099009900990099,48.79207920792079,9.89633385028291,79.17067080226327
1,254,0,../static/images/invador3.png,1,80,2,40.0,left,74,1,946.0,0.347347889064161,2,0,2,6160.0,1012.0,6.086956521739131,12.173913043478262,8.685216482157728,17.370432964315455
1,255,0,../static/images/invador3.png,1,80,2,40.0,left,70,2,791.0,-0.426044801726456,0,0,2,6160.0,1014.0,6.074950690335306,12.149901380670611,7.622316150923691,15.244632301847382
1,256,0,../static/images/invador3.png,1,80,2,40.0,left,70,2,996.0,0.596829402222425,0,0,2,6240.0,1018.0,6.129666011787819,12.259332023575638,9.936168542857333,19.872337085714666
1,257,0,../static/images/invador4.png,2,20,2,10.0,left,70,2,572.0,-1.51877382935965,1,0,2,6320.0,1022.0,6.183953033268102,12.367906066536204,11.605726216067467,23.211452432134934
1,258,0,../static/images/invador3.png,1,80,2,40.0,left,70,2,896.0,0.0978663759058974,0,0,2,6340.0,1026.0,6.179337231968811,12.358674463937621,9.483172767087748,18.966345534175495
1,259,0,../static/images/invador3.png,1,80,2,40.0,right,74,2,946.0,0.347347889064161,0,0,2,6420.0,1030.0,6.233009708737864,12.466019417475728,11.278867607452481,22.557735214904962
1,260,0,../static/images/invador1.png,3,80,8,10.0,right,70,1,972.0,0.477078275906458,0,0,2,6500.0,1034.0,6.286266924564797,50.29013539651837,12.574549263692186,100.59639410953748
1,261,0,../static/images/invador3.png,1,80,2,40.0,right,74,2,860.0,-0.0817603135680523,0,0,2,6500.0,1036.0,6.274131274131274,12.548262548262548,11.035670802233657,22.071341604467314
1,262,0,../static/images/invador4.png,2,20,2,10.0,left,70,2,423.0,-2.26222873857128,1,0,2,6580.0,1040.0,6.326923076923077,12.653846153846153,12.39907087377036,24.79814174754072
1,263,0,../static/images/invador3.png,1,80,2,40.0,right,74,2,529.0,-1.73332793067576,1,0,2,6600.0,1044.0,6.32183908045977,12.64367816091954,10.055609740762305,20.11121948152461
1,264,0,../static/images/invador3.png,1,80,2,40.0,left,70,2,435.0,-2.20235317541329,1,0,2,6680.0,1048.0,6.374045801526718,12.748091603053435,11.69190888232346,23.38381776464692
1,265,0,../static/images/invador2.png,4,20,8,2.5,left,70,2,567.0,-1.54372198067548,1,0,2,6760.0,1052.0,6.425855513307985,51.40684410646388,12.872578745701215,102.98062996560972
1,266,0,../static/images/invador3.png,1,80,2,40.0,right,74,2,988.0,0.556912360117102,0,0,2,6780.0,1062.0,6.3841807909604515,12.768361581920903,7.38749218803888,14.77498437607776
1,267,0,../static/images/invador3.png,1,80,2,40.0,left,70,2,1048.0,0.856290175907019,0,0,2,6860.0,1066.0,6.435272045028142,12.870544090056285,9.766731568202127,19.533463136404254
1,268,0,../static/images/invador1.png,3,80,8,10.0,right,70,1,1072.0,0.976041302222985,0,0,2,6940.0,1070.0,6.485981308411215,51.88785046728972,11.483469151551477,91.86775321241181
1,269,0,../static/images/invador3.png,1,80,2,40.0,left,70,2,895.0,0.0928767456427322,0,0,2,6940.0,1072.0,6.473880597014926,12.947761194029852,10.078117518696432,20.156235037392864
1,270,0,../static/images/invador3.png,1,80,2,40.0,right,74,2,970.0,0.467099015380127,0,0,2,7020.0,1076.0,6.5241635687732344,13.048327137546469,11.708149344976928,23.416298689953855
1,271,0,../static/images/invador2.png,4,20,8,2.5,left,74,1,1251.0,1.86918511932957,0,0,2,7100.0,1080.0,6.574074074074074,52.592592592592595,12.884297033840122,103.07437627072098
1,272,0,../static/images/invador4.png,2,20,2,10.0,right,70,1,1023.0,0.731549419327887,0,0,2,7100.0,1082.0,6.561922365988909,13.123844731977819,11.307511514087123,22.615023028174246
1,273,0,../static/images/invador3.png,1,80,2,40.0,right,74,2,860.0,-0.0817603135680523,0,0,2,7100.0,1084.0,6.549815498154982,13.099630996309964,9.92369364858586,19.84738729717172
1,274,0,../static/images/invador3.png,1,80,2,40.0,right,74,2,977.0,0.502026427222284,0,0,2,7180.0,1088.0,6.599264705882353,13.198529411764707,11.596724969693225,23.19344993938645
1,275,0,../static/images/invador2.png,4,20,8,2.5,left,74,1,994.0,0.586850141696094,0,0,2,7260.0,1092.0,6.648351648351649,53.18681318681319,12.803898897214781,102.43119117771825
1,276,0,../static/images/invador1.png,3,80,8,10.0,left,70,2,609.0,-1.33415750962254,1,0,2,7260.0,1094.0,6.6361974405850095,53.089579524680076,11.236952534174252,89.89562027339402
1,277,0,../static/images/invador4.png,2,20,2,10.0,right,70,1,1060.0,0.916165739065002,0,0,2,7340.0,1104.0,6.648550724637682,13.297101449275363,9.916959566898548,19.833919133797096
1,278,0,../static/images/invador3.png,1,80,2,40.0,left,70,2,518.0,-1.78821386357058,1,0,2,7340.0,1106.0,6.636528028933093,13.273056057866185,8.703318015171526,17.40663603034305
1,279,0,../static/images/invador3.png,1,80,2,40.0,right,74,2,1043.0,0.831342024591192,2,0,2,7420.0,1110.0,6.684684684684685,13.36936936936937,10.716164260605428,21.432328521210856
1,280,0,../static/images/invador3.png,1,80,2,40.0,left,70,2,874.0,-0.0119054898837385,0,0,2,7500.0,1114.0,6.732495511669659,13.464991023339318,12.168531276656966,24.33706255331393
1,281,0,../static/images/invador3.png,1,80,2,40.0,right,70,1,559.0,-1.5836390227808,2,0,2,7580.0,1118.0,6.779964221824687,13.559928443649374,13.216485115207483,26.432970230414966
1,282,0,../static/images/invador3.png,1,80,2,40.0,right,74,2,481.0,-1.97283018330769,1,0,2,7580.0,1120.0,6.767857142857143,13.535714285714286,11.59904628273134,23.19809256546268
1,283,0,../static/images/invador1.png,3,80,8,10.0,right,70,1,1107.0,1.15067836143377,0,0,2,7660.0,1124.0,6.814946619217082,54.519572953736656,12.805573838109117,102.44459070487294
1,284,0,../static/images/invador4.png,2,20,2,10.0,left,74,1,1090.0,1.06585464695996,0,0,2,7660.0,1126.0,6.802841918294849,13.605683836589698,11.23842249511961,22.47684499023922
1,285,0,../static/images/invador2.png,4,20,8,2.5,left,74,1,1134.0,1.28539837853923,0,0,2,7660.0,1128.0,6.790780141843972,54.326241134751776,9.86305977190479,78.90447817523832
1,286,0,../static/images/invador3.png,1,80,2,40.0,right,70,1,1012.0,0.676663486433069,2,0,2,7660.0,1130.0,6.778761061946903,13.557522123893806,8.65601449904658,17.31202899809316
1,287,0,../static/images/invador3.png,1,80,2,40.0,right,74,2,508.0,-1.83811016620223,1,0,2,7660.0,1132.0,6.76678445229682,13.53356890459364,7.596687918401869,15.193375836803739
1,288,0,../static/images/invador3.png,1,80,2,40.0,right,74,2,1027.0,0.751507940380548,0,0,2,7740.0,1136.0,6.813380281690141,13.626760563380282,9.917676519594837,19.835353039189673
1,289,0,../static/images/invador4.png,2,20,2,10.0,right,70,1,946.0,0.347347889064161,0,0,2,7820.0,1140.0,6.859649122807017,13.719298245614034,11.592383316823458,23.184766633646916
1,290,0,../static/images/invador3.png,1,80,2,40.0,left,70,2,818.0,-0.291324784620994,0,0,2,7820.0,1142.0,6.8476357267950965,13.695271453590193,10.173702724053426,20.34740544810685
1,291,0,../static/images/invador1.png,3,80,8,10.0,left,74,1,969.0,0.462109385116962,0,0,2,7900.0,1146.0,6.893542757417103,55.14834205933683,11.777118745793276,94.2169499663462
1,292,0,../static/images/invador3.png,1,80,2,40.0,left,70,2,950.0,0.367306410116822,0,0,2,7900.0,1148.0,6.881533101045296,13.763066202090592,10.335830155969163,20.671660311938325
1,293,0,../static/images/invador2.png,4,20,8,2.5,right,70,1,892.0,0.0779078548532363,0,0,2,7980.0,1152.0,6.927083333333333,55.416666666666664,11.89410161770697,95.15281294165575
1,294,0,../static/images/invador3.png,1,80,2,40.0,right,74,2,682.0,-0.969914500411471,1,0,2,7980.0,1154.0,6.915077989601387,13.830155979202774,10.438496616362059,20.876993232724118
1,295,0,../static/images/invador4.png,2,20,2,10.0,left,74,1,914.0,0.187679720642872,0,0,2,8060.0,1158.0,6.960276338514681,13.920552677029361,11.968180490381748,23.936360980763496
1,296,0,../static/images/invador2.png,4,20,8,2.5,left,74,1,1138.0,1.30535689959189,0,0,2,8060.0,1160.0,6.948275862068965,55.58620689655172,10.503509686420955,84.02807749136764
1,297,0,../static/images/invador1.png,3,80,8,10.0,left,74,1,882.0,0.0280115522215836,0,0,2,8060.0,1162.0,6.93631669535284,55.49053356282272,9.218085892120417,73.74468713696334
1,298,0,../static/images/invador3.png,1,80,2,40.0,right,74,2,908.0,0.157741939063881,0,0,2,8060.0,1164.0,6.9243986254295535,13.848797250859107,8.08997278541701,16.17994557083402
1,299,0,../static/images/invador3.png,1,80,2,40.0,left,70,2,936.0,0.297451586432508,0,0,2,8140.0,1168.0,6.969178082191781,13.938356164383562,10.273605678116192,20.547211356232385
1,300,0,../static/images/invador3.png,1,80,2,40.0,right,74,2,918.0,0.207638241695533,0,0,2,8220.0,1172.0,7.013651877133106,14.027303754266212,11.849203613485491,23.698407226970982
1,301,0,../static/images/invador1.png,3,80,8,10.0,right,70,1,879.0,0.0130426614320878,0,0,2,8300.0,1176.0,7.057823129251701,56.46258503401361,12.98607458764973,103.88859670119784
1,302,0,../static/images/invador3.png,1,80,2,40.0,right,74,2,959.0,0.41221308248531,0,0,2,8300.0,1178.0,7.045840407470289,14.091680814940577,11.396833489399793,22.793666978799585
1,303,0,../static/images/invador3.png,1,80,2,40.0,right,70,1,463.0,-2.06264352804466,2,0,2,8380.0,1182.0,7.089678510998308,14.179357021996616,12.659667417325808,25.319334834651617
1,304,0,../static/images/invador2.png,4,20,8,2.5,left,74,1,1019.0,0.711590898275226,0,0,2,8380.0,1184.0,7.077702702702703,56.62162162162162,11.110372161550517,88.88297729240414
1,305,0,../static/images/invador3.png,1,80,2,40.0,right,74,2,997.0,0.60181903248559,0,0,2,8380.0,1186.0,7.065767284991568,14.131534569983137,9.7506802903225,19.501360580645
1,306,0,../static/images/invador4.png,2,20,2,10.0,right,70,1,898.0,0.107845636432228,0,0,2,8460.0,1190.0,7.109243697478991,14.218487394957982,11.471887369480076,22.94377473896015
1,307,0,../static/images/invador3.png,1,80,2,40.0,right,74,2,1129.0,1.26045022722341,0,0,2,8460.0,1192.0,7.097315436241611,14.194630872483222,10.067953119833067,20.135906239666134
1,308,0,../static/images/invador2.png,4,20,8,2.5,right,70,1,812.0,-0.321262566199985,2,0,2,8540.0,1196.0,7.1404682274247495,57.123745819397996,11.700815234047873,93.60652187238298
1,309,0,../static/images/invador1.png,3,80,8,10.0,left,74,1,1117.0,1.20057466406542,0,0,2,8540.0,1198.0,7.128547579298831,57.02838063439065,10.26886469907537,82.15091759260297
1,310,0,../static/images/invador3.png,1,80,2,40.0,left,70,2,953.0,0.382275300906318,0,0,2,8540.0,1200.0,7.116666666666666,14.233333333333333,9.012156853914892,18.024313707829783
1,311,0,../static/images/invador3.png,1,80,2,40.0,left,70,2,1082.0,1.02593760485464,0,0,2,8620.0,1204.0,7.159468438538206,14.318936877076412,10.939006588321242,21.878013176642483
1,312,0,../static/images/invador4.png,2,20,2,10.0,left,74,1,957.0,0.402233821958979,0,0,2,8700.0,1208.0,7.201986754966887,14.403973509933774,12.329322915506078,24.658645831012155
1,313,0,../static/images/invador3.png,1,80,2,40.0,right,74,2,965.0,0.442150864064301,0,0,2,8700.0,1210.0,7.190082644628099,14.380165289256198,10.820455354437861,21.640910708875722
1,314,0,../static/images/invador3.png,1,80,2,40.0,left,70,2,844.0,-0.161594397778697,0,0,2,8780.0,1214.0,7.2322899505766065,14.464579901153213,12.243782401820534,24.487564803641067
1,315,0,../static/images/invador2.png,4,20,8,2.5,right,70,1,1132.0,1.2754191180129,0,0,2,8860.0,1218.0,7.274220032840723,58.19376026272578,13.270782482607629,106.16625986086103
1,316,0,../static/images/invador3.png,1,80,2,40.0,right,74,2,520.0,-1.77823460304424,1,0,2,8860.0,1220.0,7.262295081967213,14.524590163934427,11.64669871618962,23.29339743237924
1,317,0,../static/images/invador3.png,1,80,2,40.0,left,70,2,868.0,-0.0418432714627302,0,0,2,8940.0,1224.0,7.303921568627451,14.607843137254902,12.839957399569116,25.67991479913823
1,318,0,../static/images/invador4.png,2,20,2,10.0,left,74,1,892.0,0.0779078548532363,0,0,2,9020.0,1228.0,7.3452768729641695,14.690553745928339,13.700951902894367,27.401903805788734
1,319,0,../static/images/invador3.png,1,80,2,40.0,right,74,2,680.0,-0.979893760937801,1,0,2,9020.0,1230.0,7.333333333333333,14.666666666666666,12.024223827581027,24.048447655162054
1,320,0,../static/images/invador3.png,1,80,2,40.0,right,74,2,485.0,-1.95287166225503,1,0,2,9100.0,1234.0,7.374392220421393,14.748784440842787,13.11236023250277,26.22472046500554
1,321,0,../static/images/invador1.png,3,80,8,10.0,right,70,1,894.0,0.0878871153795669,0,0,2,9180.0,1238.0,7.415185783521809,59.321486268174475,13.89750387030336,111.18003096242688
1,322,0,../static/images/invador3.png,1,80,2,40.0,left,70,2,873.0,-0.0168951201469038,0,0,2,9180.0,1240.0,7.403225806451613,14.806451612903226,12.19672168514798,24.39344337029596
1,323,0,../static/images/invador4.png,2,20,2,10.0,left,70,2,680.0,-0.979893760937801,1,0,2,9260.0,1244.0,7.443729903536977,14.887459807073954,13.23682587374989,26.47365174749978
1,324,0,../static/images/invador3.png,1,80,2,40.0,left,70,2,468.0,-2.03769537672884,1,0,2,9280.0,1248.0,7.435897435897436,14.871794871794872,10.660090948535949,21.320181897071897
1,325,0,../static/images/invador2.png,4,20,8,2.5,right,70,1,989.0,0.561901990380268,0,0,2,9360.0,1252.0,7.476038338658147,59.808306709265175,12.128071639406869,97.02457311525495
1,326,0,../static/images/invador1.png,3,80,8,10.0,right,70,1,489.0,-1.93291314120237,2,0,2,9360.0,1254.0,7.464114832535885,59.71291866028708,10.643833291492586,85.15066633194068
1,327,0,../static/images/invador3.png,1,80,2,40.0,left,70,2,933.0,0.282482695643012,0,0,2,9360.0,1256.0,7.452229299363057,14.904458598726114,9.341236637238932,18.682473274477864
1,328,0,../static/images/invador3.png,1,80,2,40.0,right,74,2,536.0,-1.6984005188336,1,0,2,9440.0,1260.0,7.492063492063492,14.984126984126984,11.176453747553316,22.35290749510663
1,329,0,../static/images/invador3.png,1,80,2,40.0,right,74,2,1046.0,0.846310915380688,0,0,2,9520.0,1264.0,7.531645569620253,15.063291139240507,12.500652654628533,25.001305309257067
1,330,0,../static/images/invador3.png,1,80,2,40.0,left,70,2,1066.0,0.946103520643994,0,0,2,9600.0,1268.0,7.570977917981073,15.141955835962145,13.456126933744647,26.912253867489294
1,331,0,../static/images/invador4.png,2,20,2,10.0,right,70,1,1116.0,1.19558503380226,0,0,2,9680.0,1272.0,7.610062893081761,15.220125786163521,14.145548359162428,28.291096718324855
1,332,0,../static/images/invador1.png,3,80,8,10.0,left,70,0,NaN,NaN,0,1,2,9680.0,1274.0,7.598116169544741,60.78492935635793,12.414410388413135,99.31528310730508
1,333,0,../static/images/invador3.png,1,80,2,40.0,left,74,1,849.0,-0.13664624646287,2,0,2,9680.0,1284.0,7.538940809968848,15.077881619937695,6.463349622153812,12.926699244307624
1,334,0,../static/images/invador2.png,4,20,8,2.5,right,74,2,1022.0,0.726559789064722,0,0,2,9680.0,1286.0,7.527216174183515,60.21772939346812,5.672362262381988,45.3788980990559
1,335,0,../static/images/invador3.png,1,80,2,40.0,left,70,2,775.0,-0.5058788859371,0,0,2,9700.0,1296.0,7.484567901234568,14.969135802469136,3.8756882602739813,7.751376520547963
1,336,0,../static/images/invador4.png,2,20,2,10.0,right,70,1,946.0,0.347347889064161,0,0,2,9780.0,1300.0,7.523076923076923,15.046153846153846,7.232793269091508,14.465586538183016
1,337,0,../static/images/invador3.png,1,80,2,40.0,left,70,2,941.0,0.322399737748335,0,0,2,9780.0,1302.0,7.511520737327189,15.023041474654377,6.347641082354678,12.695282164709356
1,338,0,../static/images/invador3.png,1,80,2,40.0,left,70,2,887.0,0.05295970353741,0,0,2,9860.0,1306.0,7.549770290964778,15.099540581929556,9.016428135475254,18.032856270950507
1,339,0,../static/images/invador1.png,3,80,8,10.0,right,70,1,855.0,-0.106708464883879,2,0,2,9940.0,1310.0,7.587786259541985,60.70229007633588,10.94208852687895,87.5367082150316
1,340,0,../static/images/invador3.png,1,80,2,40.0,right,74,2,1141.0,1.32032579038139,0,0,2,9940.0,1312.0,7.576219512195122,15.152439024390244,9.602991275416729,19.205982550833458
1,341,0,../static/images/invador3.png,1,80,2,40.0,left,70,2,897.0,0.102856006169063,0,0,2,10020.0,1316.0,7.613981762917933,15.227963525835866,11.365322521633964,22.730645043267927
1,342,0,../static/images/invador2.png,4,20,8,2.5,right,74,2,503.0,-1.86305831751805,1,0,2,10100.0,1320.0,7.651515151515151,61.21212121212121,12.636930712855325,101.0954457028426
1,343,0,../static/images/invador3.png,1,80,2,40.0,right,74,2,1004.0,0.636746444327747,0,0,2,10120.0,1330.0,7.609022556390977,15.218045112781954,7.272558187202176,14.545116374404351
1,344,0,../static/images/invador4.png,2,20,2,10.0,right,70,1,929.0,0.262524174590351,0,0,2,10200.0,1334.0,7.646176911544228,15.292353823088456,9.683801065081614,19.367602130163228
1,345,0,../static/images/invador3.png,1,80,2,40.0,left,70,2,1032.0,0.776456091696374,0,0,2,10200.0,1336.0,7.634730538922156,15.269461077844312,8.498693545790093,16.997387091580187
1,346,0,../static/images/invador2.png,4,20,8,2.5,left,74,1,1117.0,1.20057466406542,0,0,2,10280.0,1340.0,7.6716417910447765,61.37313432835821,10.56851769759506,84.54814158076049
1,347,0,../static/images/invador3.png,1,80,2,40.0,left,70,2,923.0,0.23258639301136,0,0,2,10280.0,1342.0,7.660208643815201,15.320417287630402,9.275138196404342,18.550276392808684
1,348,0,../static/images/invador1.png,3,80,8,10.0,left,74,1,1059.0,0.911176108801837,0,0,2,10360.0,1346.0,7.696879643387816,61.57503714710253,11.128760489561868,89.03008391649495
1,349,0,../static/images/invador3.png,1,80,2,40.0,right,74,2,849.0,-0.13664624646287,0,0,2,10360.0,1348.0,7.685459940652819,15.370919881305637,9.76681824726086,19.53363649452172
1,350,0,../static/images/invador2.png,4,20,8,2.5,left,74,1,976.0,0.497036796959119,0,0,2,10440.0,1352.0,7.72189349112426,61.77514792899408,11.483531694731894,91.86825355785516
1,351,0,../static/images/invador3.png,1,80,2,40.0,right,74,2,1082.0,1.02593760485464,0,0,2,10440.0,1354.0,7.710487444608567,15.420974889217135,10.078172407816952,20.156344815633904
1,352,0,../static/images/invador1.png,3,80,8,10.0,right,74,2,644.0,-1.15952045041175,1,0,2,10520.0,1358.0,7.746686303387334,61.973490427098675,11.708188950162054,93.66551160129643
1,353,0,../static/images/invador3.png,1,80,2,40.0,right,74,2,844.0,-0.161594397778697,0,0,2,10600.0,1368.0,7.748538011695906,15.497076023391813,10.146798475271053,20.293596950542106
1,354,0,../static/images/invador3.png,1,80,2,40.0,right,74,2,803.0,-0.366169238568473,0,0,2,10680.0,1372.0,7.784256559766764,15.568513119533527,11.757706014387784,23.515412028775568
1,355,0,../static/images/invador4.png,2,20,2,10.0,left,70,2,441.0,-2.1724153938343,1,0,2,10760.0,1376.0,7.819767441860465,15.63953488372093,12.920054594677655,25.84010918935531
1,356,0,../static/images/invador3.png,1,80,2,40.0,left,70,2,963.0,0.432171603537971,0,0,2,10780.0,1380.0,7.811594202898551,15.623188405797102,10.431524977140654,20.86304995428131
1,357,0,../static/images/invador3.png,1,80,2,40.0,left,70,2,523.0,-1.76326571225475,1,0,2,10860.0,1384.0,7.8468208092485545,15.693641618497109,11.96315011169488,23.92630022338976
1,358,0,../static/images/invador3.png,1,80,2,40.0,left,70,2,833.0,-0.216480330673515,0,0,2,10940.0,1388.0,7.881844380403458,15.763688760806916,13.068292559325066,26.13658511865013
1,359,0,../static/images/invador3.png,1,80,2,40.0,left,70,2,812.0,-0.321262566199985,0,0,2,11020.0,1392.0,7.916666666666667,15.833333333333334,13.865706888719387,27.731413777438775
1,360,0,../static/images/invador2.png,4,20,8,2.5,right,70,1,1132.0,1.2754191180129,0,0,2,11100.0,1396.0,7.951289398280802,63.61031518624642,14.44108032957031,115.52864263656248
1,361,0,../static/images/invador1.png,3,80,8,10.0,right,74,2,1137.0,1.30036726932873,0,0,2,11100.0,1398.0,7.939914163090129,63.51931330472103,12.673775035889909,101.39020028711927
1,362,0,../static/images/invador3.png,1,80,2,40.0,left,70,2,462.0,-2.06763315830783,1,0,2,11180.0,1408.0,7.940340909090909,15.880681818181818,10.617749455190902,21.235498910381803
1,363,0,../static/images/invador4.png,2,20,2,10.0,left,70,2,481.0,-1.97283018330769,1,0,2,11260.0,1412.0,7.974504249291785,15.94900849858357,12.09752018100104,24.19504036200208
1,364,0,../static/images/invador3.png,1,80,2,40.0,left,74,1,936.0,0.297451586432508,0,0,2,11280.0,1416.0,7.966101694915254,15.932203389830509,9.838026166836,19.676052333672
1,365,0,../static/images/invador3.png,1,80,2,40.0,right,74,2,1022.0,0.726559789064722,0,0,2,11280.0,1418.0,7.9548660084626235,15.909732016925247,8.634044516764193,17.268089033528387
1,366,0,../static/images/invador3.png,1,80,2,40.0,right,74,2,955.0,0.392254561432648,0,0,2,11360.0,1422.0,7.988748241912799,15.977496483825599,10.666180043280566,21.33236008656113
1,367,0,../static/images/invador2.png,4,20,8,2.5,right,70,1,988.0,0.556912360117102,0,0,2,11440.0,1426.0,8.022440392706873,64.17952314165498,12.13246521908776,97.05972175270207
1,368,0,../static/images/invador1.png,3,80,8,10.0,right,70,1,1075.0,0.991010193012481,0,0,2,11440.0,1428.0,8.011204481792717,64.08963585434174,10.64768918310229,85.18151346481832
1,369,0,../static/images/invador4.png,2,20,2,10.0,right,70,1,1136.0,1.29537763906556,0,0,2,11440.0,1430.0,8.0,16.0,9.344620643262644,18.689241286525288
1,370,0,../static/images/invador3.png,1,80,2,40.0,right,74,2,939.0,0.312420477222004,0,0,2,11440.0,1432.0,7.988826815642458,15.977653631284916,8.201022162167249,16.402044324334497
1,371,0,../static/images/invador1.png,3,80,8,10.0,left,74,1,465.0,-2.05266426751833,2,0,2,11520.0,1436.0,8.022284122562674,64.17827298050139,10.353733234958149,82.82986587966519
1,372,0,../static/images/invador3.png,1,80,2,40.0,right,74,2,841.0,-0.176563288568193,0,0,2,11520.0,1438.0,8.011126564673157,16.022253129346314,9.086639143802941,18.173278287605882
1,373,0,../static/images/invador3.png,1,80,2,40.0,left,74,1,497.0,-1.89299609909705,2,0,2,11600.0,1442.0,8.044382801664355,16.08876560332871,10.992749203465735,21.98549840693147
1,374,0,../static/images/invador2.png,4,20,8,2.5,right,70,1,1047.0,0.851300545643853,0,0,2,11600.0,1444.0,8.033240997229917,64.26592797783934,9.647452077764886,77.17961662211908
1,375,0,../static/images/invador3.png,1,80,2,40.0,right,70,1,593.0,-1.41399159383318,2,0,2,11600.0,1446.0,8.022130013831259,16.044260027662517,8.466792962348887,16.933585924697773
1,376,0,../static/images/invador3.png,1,80,2,40.0,right,74,2,873.0,-0.0168951201469038,0,0,2,11600.0,1448.0,8.011049723756907,16.022099447513813,7.430623390449527,14.861246780899053
1,377,0,../static/images/invador4.png,2,20,2,10.0,left,70,2,566.0,-1.54871161093864,1,0,2,11680.0,1452.0,8.044077134986226,16.088154269972453,9.797852840324113,19.595705680648226
1,378,0,../static/images/invador3.png,1,80,2,40.0,right,74,2,822.0,-0.271366263568333,0,0,2,11700.0,1456.0,8.035714285714286,16.071428571428573,8.178703701910152,16.357407403820304
1,379,0,../static/images/invador4.png,2,20,2,10.0,left,74,1,604.0,-1.35910566093836,2,0,2,11780.0,1460.0,8.068493150684931,16.136986301369863,10.337629374268344,20.675258748536688
1,380,0,../static/images/invador3.png,1,80,2,40.0,right,74,2,550.0,-1.62854569514929,1,0,2,11780.0,1462.0,8.057455540355678,16.114911080711355,9.072506080144679,18.145012160289358
1,381,0,../static/images/invador3.png,1,80,2,40.0,right,74,2,896.0,0.0978663759058974,0,0,2,11860.0,1466.0,8.090040927694407,16.180081855388813,10.982551506776492,21.965103013552984
1,382,0,../static/images/invador2.png,4,20,8,2.5,right,70,1,1086.0,1.0458961259073,0,0,2,11940.0,1470.0,8.122448979591837,64.9795918367347,12.360742703989438,98.8859416319155
1,383,0,../static/images/invador3.png,1,80,2,40.0,right,74,2,503.0,-1.86305831751805,1,0,2,11940.0,1472.0,8.111413043478262,16.222826086956523,10.848029976406963,21.696059952813926
1,384,0,../static/images/invador1.png,3,80,8,10.0,right,74,2,517.0,-1.79320349383374,1,0,2,12020.0,1476.0,8.143631436314363,65.1490514905149,12.263678840268758,98.10943072215007
1,385,0,../static/images/invador3.png,1,80,2,40.0,right,74,2,787.0,-0.446003322779117,0,0,2,12100.0,1486.0,8.142664872139973,16.285329744279945,10.417730826045474,20.83546165209095
1,386,0,../static/images/invador2.png,4,20,8,2.5,left,74,1,994.0,0.586850141696094,0,0,2,12180.0,1490.0,8.174496644295303,65.39597315436242,11.953196956996392,95.62557565597113
1,387,0,../static/images/invador1.png,3,80,8,10.0,left,74,1,715.0,-0.805256701727017,2,0,2,12180.0,1492.0,8.163538873994638,65.3083109919571,10.490359843955227,83.92287875164182
1,388,0,../static/images/invador3.png,1,80,2,40.0,left,70,2,866.0,-0.0518225319890607,0,0,2,12180.0,1494.0,8.152610441767068,16.305220883534137,9.206545332732574,18.41309066546515
1,389,0,../static/images/invador3.png,1,80,2,40.0,right,74,2,870.0,-0.0318640109363996,0,0,2,12260.0,1498.0,8.184245660881174,16.36849132176235,11.07926738348912,22.15853476697824
1,390,0,../static/images/invador4.png,2,20,2,10.0,left,74,1,907.0,0.152752308800715,0,0,2,12340.0,1502.0,8.215712383488682,16.431424766977365,12.430527939490945,24.86105587898189
1,391,0,../static/images/invador3.png,1,80,2,40.0,right,74,2,853.0,-0.116687725410209,0,0,2,12340.0,1504.0,8.204787234042554,16.409574468085108,10.909274866358976,21.81854973271795
1,392,0,../static/images/invador1.png,3,80,8,10.0,right,70,1,1007.0,0.651715335117243,0,0,2,12420.0,1508.0,8.23607427055703,65.88859416445624,12.307870023907245,98.46296019125796
1,393,0,../static/images/invador4.png,2,20,2,10.0,left,74,1,969.0,0.462109385116962,0,0,2,12420.0,1510.0,8.225165562913908,16.450331125827816,10.801627876452283,21.603255752904566
1,394,0,../static/images/invador3.png,1,80,2,40.0,right,74,2,611.0,-1.3241782490962,1,0,2,12420.0,1512.0,8.214285714285714,16.428571428571427,9.479720256609557,18.959440513219114
1,395,0,../static/images/invador3.png,1,80,2,40.0,right,74,2,513.0,-1.8131620148864,1,0,2,12500.0,1516.0,8.24538258575198,16.49076517150396,11.276376452277328,22.552752904554655
1,396,0,../static/images/invador3.png,1,80,2,40.0,right,74,2,1007.0,0.651715335117243,0,0,2,12580.0,1520.0,8.276315789473685,16.55263157894737,12.572751773388855,25.14550354677771
1,397,0,../static/images/invador3.png,1,80,2,40.0,right,70,1,438.0,-2.1873842846238,2,0,2,12660.0,1524.0,8.307086614173228,16.614173228346456,13.508149974357622,27.016299948715243
1,398,0,../static/images/invador2.png,4,20,8,2.5,left,74,1,976.0,0.497036796959119,0,0,2,12660.0,1526.0,8.296199213630405,66.36959370904324,11.855017077601461,94.84013662081169
1,399,0,../static/images/invador3.png,1,80,2,40.0,right,74,2,921.0,0.222607132485029,0,0,2,12660.0,1528.0,8.285340314136125,16.57068062827225,10.404195258196761,20.808390516393523
1,400,0,../static/images/invador3.png,1,80,2,40.0,left,70,2,888.0,0.0579493338005753,0,0,2,12740.0,1532.0,8.315926892950392,16.631853785900784,11.94343038275775,23.8868607655155
1,401,0,../static/images/invador2.png,4,20,8,2.5,right,70,1,1046.0,0.846310915380688,0,0,2,12820.0,1536.0,8.346354166666666,66.77083333333333,13.054063810388708,104.43251048310967
1,402,0,../static/images/invador3.png,1,80,2,40.0,right,74,2,943.0,0.332378998274665,0,0,2,12820.0,1538.0,8.335500650195058,16.671001300390117,11.456502163362805,22.91300432672561
1,403,0,../static/images/invador3.png,1,80,2,40.0,left,70,2,944.0,0.33736862853783,0,0,2,12900.0,1542.0,8.365758754863814,16.731517509727627,12.702721284034206,25.405442568068413
1,404,0,../static/images/invador4.png,2,20,2,10.0,right,70,1,434.0,-2.20734280567646,2,0,2,12980.0,1546.0,8.395860284605433,16.791720569210867,13.601929333204266,27.203858666408532
1,405,0,../static/images/invador1.png,3,80,8,10.0,left,70,2,443.0,-2.16243613330797,1,0,2,12980.0,1548.0,8.38501291989664,67.08010335917312,11.937319680309006,95.49855744247205
1,406,0,../static/images/invador1.png,3,80,8,10.0,left,74,1,920.0,0.217617502221864,0,0,2,13060.0,1558.0,8.382541720154043,67.06033376123234,10.258553753736068,82.06843002988855
1,407,0,../static/images/invador3.png,1,80,2,40.0,right,74,2,1059.0,0.911176108801837,0,0,2,13060.0,1560.0,8.371794871794872,16.743589743589745,9.003107766266643,18.006215532533286
1,408,0,../static/images/invador3.png,1,80,2,40.0,right,74,2,1226.0,1.74444436275044,0,0,2,13140.0,1564.0,8.40153452685422,16.80306905370844,10.932477228984686,21.86495445796937
1,409,0,../static/images/invador4.png,2,20,2,10.0,left,74,1,961.0,0.42219234301164,0,0,2,13220.0,1568.0,8.431122448979592,16.862244897959183,12.324611663388398,24.649223326776795
1,410,0,../static/images/invador2.png,4,20,8,2.5,left,74,1,1126.0,1.24548133643391,0,0,2,13220.0,1570.0,8.420382165605096,67.36305732484077,10.816320667273594,86.53056533818875
1,411,0,../static/images/invador3.png,1,80,2,40.0,left,70,2,876.0,-0.001926229357408,0,0,2,13220.0,1572.0,8.40966921119593,16.81933842239186,9.492614937704667,18.985229875409335
1,412,0,../static/images/invador3.png,1,80,2,40.0,left,74,1,650.0,-1.12958266883276,2,0,2,13300.0,1576.0,8.439086294416244,16.878172588832488,11.285680595376945,22.57136119075389
1,413,0,../static/images/invador4.png,2,20,2,10.0,left,74,1,915.0,0.192669350906038,0,0,2,13300.0,1578.0,8.428390367553865,16.85678073510773,9.904534406600824,19.809068813201648
1,414,0,../static/images/invador3.png,1,80,2,40.0,right,74,2,971.0,0.472088645643293,0,0,2,13300.0,1580.0,8.417721518987342,16.835443037974684,8.692413451052747,17.384826902105495
1,415,0,../static/images/invador1.png,3,80,8,10.0,left,70,2,532.0,-1.71835903988626,1,0,2,13380.0,1584.0,8.446969696969697,67.57575757575758,10.7082960842425,85.66636867394
1,416,0,../static/images/invador3.png,1,80,2,40.0,left,70,2,872.0,-0.0218847504100691,0,0,2,13460.0,1594.0,8.444165621079046,16.888331242158092,9.659114847700225,19.31822969540045
1,417,0,../static/images/invador2.png,4,20,8,2.5,right,70,1,1202.0,1.62469323643447,0,0,2,13540.0,1598.0,8.473091364205256,67.78473091364205,11.40581842408674,91.24654739269393
1,418,0,../static/images/invador3.png,1,80,2,40.0,left,70,2,852.0,-0.121677355673375,0,0,2,13540.0,1600.0,8.4625,16.925,10.009969718891863,20.019939437783727
1,419,0,../static/images/invador3.png,1,80,2,40.0,left,70,2,963.0,0.432171603537971,0,0,2,13620.0,1604.0,8.491271820448878,16.982543640897756,11.658977374252803,23.317954748505606
1,420,0,../static/images/invador3.png,1,80,2,40.0,right,74,2,824.0,-0.261387003042002,0,0,2,13700.0,1608.0,8.519900497512438,17.039800995024876,12.848817051921001,25.697634103842002
1,421,0,../static/images/invador2.png,4,20,8,2.5,right,70,1,968.0,0.457119754853797,0,0,2,13780.0,1612.0,8.548387096774194,68.38709677419355,13.707344575399162,109.6587566031933
1,422,0,../static/images/invador4.png,2,20,2,10.0,left,74,1,558.0,-1.58862865304396,2,0,2,13780.0,1614.0,8.537794299876085,17.07558859975217,12.029834162220464,24.059668324440928
1,423,0,../static/images/invador3.png,1,80,2,40.0,left,70,2,900.0,0.117824896958559,0,0,2,13780.0,1616.0,8.527227722772277,17.054455445544555,10.55761815678383,21.11523631356766
1,424,0,../static/images/invador3.png,1,80,2,40.0,right,74,2,979.0,0.512005687748615,0,0,2,13860.0,1620.0,8.555555555555555,17.11111111111111,12.054132508128907,24.108265016257814
1,425,0,../static/images/invador3.png,1,80,2,40.0,right,74,2,892.0,0.0779078548532363,0,0,2,13940.0,1624.0,8.583743842364532,17.167487684729064,13.13394080837631,26.26788161675262
1,426,0,../static/images/invador1.png,3,80,8,10.0,left,74,1,887.0,0.05295970353741,0,0,2,14020.0,1628.0,8.611793611793612,68.8943488943489,13.913075311319895,111.30460249055916
1,427,0,../static/images/invador3.png,1,80,2,40.0,left,70,2,847.0,-0.146625506989201,0,0,2,14020.0,1630.0,8.60122699386503,17.20245398773006,12.21038748686948,24.42077497373896
1,428,0,../static/images/invador1.png,3,80,8,10.0,left,74,1,885.0,0.0429804430110794,0,0,2,14100.0,1634.0,8.629130966952264,69.03304773561811,13.246686418097594,105.97349134478075
1,429,0,../static/images/invador2.png,4,20,8,2.5,left,74,1,1092.0,1.07583390748629,0,0,2,14100.0,1636.0,8.618581907090464,68.94865525672371,11.625551537870477,93.00441230296381
1,430,0,../static/images/invador3.png,1,80,2,40.0,left,70,2,992.0,0.576870881169763,0,0,2,14100.0,1638.0,8.608058608058608,17.216117216117215,10.202811804696777,20.405623609393555
1,431,0,../static/images/invador3.png,1,80,2,40.0,right,74,2,466.0,-2.04767463725517,1,0,2,14180.0,1642.0,8.635809987819732,17.271619975639464,11.798122371226611,23.596244742453223
1,432,0,../static/images/invador4.png,2,20,2,10.0,left,74,1,651.0,-1.12459303856959,2,0,2,14260.0,1646.0,8.663426488456865,17.32685297691373,12.949216972934233,25.898433945868465
1,433,0,../static/images/invador3.png,1,80,2,40.0,left,70,2,560.0,-1.57864939251763,1,0,2,14260.0,1648.0,8.652912621359222,17.305825242718445,11.36448652458808,22.72897304917616
3,0,0,../static/images/invador4.png,1,80,2,40.0,left,70,2,833.0,0.00725451228568999,0,0,1,0.0,2.0,0.0,0.0,8.210565583877903,16.421131167755807
3,1,0,../static/images/invador4.png,1,80,2,40.0,right,74,2,802.0,-0.225928487821368,0,0,1,80.0,6.0,13.333333333333334,26.666666666666668,8.232896930764058,16.465793861528116
3,2,0,../static/images/invador4.png,1,80,2,40.0,right,74,2,804.0,-0.210884423298332,0,0,1,160.0,10.0,16.0,32.0,8.255164256392078,16.510328512784156
3,3,0,../static/images/invador3.png,3,80,8,10.0,right,74,2,677.0,-1.16618252051112,1,0,1,240.0,14.0,17.142857142857142,137.14285714285714,8.277367744303133,66.21894195442506
3,4,0,../static/images/invador1.png,2,20,2,10.0,left,70,2,910.0,0.586450996422576,0,0,1,320.0,24.0,13.333333333333334,26.666666666666668,8.271121112989814,16.542242225979628
3,5,0,../static/images/invador2.png,4,20,8,2.5,right,74,2,950.0,0.887332286883296,0,0,1,340.0,28.0,12.142857142857142,97.14285714285714,8.25887632394388,66.07101059155104
3,6,0,../static/images/invador4.png,1,80,2,40.0,left,74,1,661.0,-1.28653503669541,2,0,1,360.0,38.0,9.473684210526315,18.94736842105263,8.218343589308022,16.436687178616044
3,7,0,../static/images/invador4.png,1,80,2,40.0,right,74,2,815.0,-0.128142068421634,0,0,1,360.0,40.0,9.0,18.0,8.208911074313388,16.417822148626776
3,8,0,../static/images/invador1.png,2,20,2,10.0,right,74,2,983.0,1.13555935151339,0,0,1,440.0,44.0,10.0,20.0,8.231247164477432,16.462494328954865
3,9,0,../static/images/invador4.png,1,80,2,40.0,right,74,2,989.0,1.1806915450825,0,0,1,460.0,48.0,9.583333333333334,19.166666666666668,8.219116689196968,16.438233378393935
3,10,0,../static/images/invador3.png,3,80,8,10.0,right,70,1,1261.0,3.22668432021539,0,0,1,540.0,52.0,10.384615384615385,83.07692307692308,8.24142352110318,65.93138816882544
3,11,0,../static/images/invador4.png,1,80,2,40.0,left,70,2,1082.0,1.88024054540367,0,0,1,540.0,54.0,10.0,20.0,8.231964516366377,16.463929032732754
3,12,0,../static/images/invador4.png,1,80,2,40.0,right,74,2,823.0,-0.06796581032949,0,0,1,620.0,58.0,10.689655172413794,21.379310344827587,8.25423451511318,16.50846903022636
3,13,0,../static/images/invador2.png,4,20,8,2.5,left,70,2,859.0,0.202827351085158,0,0,1,700.0,62.0,11.290322580645162,90.3225806451613,8.27644066847951,66.21152534783609
3,14,0,../static/images/invador2.png,4,20,8,2.5,right,70,1,1312.0,3.61030796555281,0,0,1,720.0,72.0,10.0,80.0,8.235797343712461,65.88637874969969
3,15,0,../static/images/invador4.png,1,80,2,40.0,right,74,2,841.0,0.067430770377834,0,0,1,720.0,74.0,9.72972972972973,19.45945945945946,8.226344796359927,16.452689592719853
3,16,0,../static/images/invador3.png,3,80,8,10.0,left,74,1,1016.0,1.38378641614348,0,0,1,800.0,78.0,10.256410256410257,82.05128205128206,8.248630906161162,65.9890472492893
3,17,0,../static/images/invador1.png,2,20,2,10.0,right,74,2,918.0,0.64662725451472,0,0,1,800.0,80.0,10.0,20.0,8.239163629226088,16.478327258452175
3,18,0,../static/images/invador4.png,1,80,2,40.0,left,70,2,837.0,0.037342641331762,0,0,1,820.0,84.0,9.761904761904763,19.523809523809526,8.227010458403084,16.45402091680617
3,19,0,../static/images/invador4.png,1,80,2,40.0,right,74,2,847.0,0.112562963946942,0,0,1,900.0,88.0,10.227272727272727,20.454545454545453,8.249294659832124,16.498589319664248
3,20,0,../static/images/invador4.png,1,80,2,40.0,right,74,2,769.0,-0.474155552451462,0,0,1,980.0,92.0,10.652173913043478,21.304347826086957,8.271514975163324,16.54302995032665
3,21,0,../static/images/invador3.png,3,80,8,10.0,right,74,2,703.0,-0.97060968171165,1,0,1,1060.0,96.0,11.041666666666666,88.33333333333333,8.293671587550367,66.34937270040294
3,22,0,../static/images/invador1.png,2,20,2,10.0,right,74,2,1052.0,1.65457957755813,0,0,1,1140.0,106.0,10.754716981132075,21.50943396226415,8.287322302582083,16.574644605164167
3,23,0,../static/images/invador2.png,4,20,8,2.5,left,74,1,892.0,0.451054415715252,0,0,1,1160.0,110.0,10.545454545454545,84.36363636363636,8.275031066694122,66.20024853355298
3,24,0,../static/images/invador4.png,1,80,2,40.0,left,70,2,645.0,-1.40688755287969,1,0,1,1160.0,112.0,10.357142857142858,20.714285714285715,8.265533489260246,16.531066978520492
3,25,0,../static/images/invador4.png,1,80,2,40.0,right,74,2,813.0,-0.14318613294467,0,0,1,1240.0,116.0,10.689655172413794,21.379310344827587,8.28770724984059,16.57541449968118
3,26,0,../static/images/invador4.png,1,80,2,40.0,right,74,2,702.0,-0.978131713973168,0,0,1,1320.0,120.0,11.0,22.0,8.309817440943588,16.619634881887176
3,27,0,../static/images/invador4.png,1,80,2,40.0,left,70,2,735.0,-0.729904649343074,0,0,1,1400.0,124.0,11.290322580645162,22.580645161290324,8.33186424481521,16.66372848963042
3,28,0,../static/images/invador4.png,1,80,2,40.0,left,70,2,746.0,-0.647162294466376,0,0,1,1480.0,128.0,11.5625,23.125,8.353847843178942,16.707695686357884
3,29,0,../static/images/invador2.png,4,20,8,2.5,right,74,2,507.0,-2.44492800496918,1,0,1,1560.0,132.0,11.818181818181818,94.54545454545455,8.375768417237303,67.00614733789843
3,30,0,../static/images/invador4.png,1,80,2,40.0,right,74,2,858.0,0.19530531882364,0,0,1,1580.0,142.0,11.126760563380282,22.253521126760564,8.334499696586915,16.66899939317383
3,31,0,../static/images/invador1.png,2,20,2,10.0,right,74,2,868.0,0.27052564143882,0,0,1,1660.0,146.0,11.36986301369863,22.73972602739726,8.356475739430644,16.71295147886129
3,32,0,../static/images/invador4.png,1,80,2,40.0,left,70,2,541.0,-2.18917890807757,0,0,1,1680.0,150.0,11.2,22.4,8.343986249041784,16.687972498083568
3,33,0,../static/images/invador3.png,3,80,8,10.0,left,74,1,1080.0,1.86519648088064,0,0,1,1760.0,154.0,11.428571428571429,91.42857142857143,8.365935095092297,66.92748076073838
3,34,0,../static/images/invador4.png,1,80,2,40.0,left,70,2,768.0,-0.48167758471298,0,0,1,1760.0,156.0,11.282051282051283,22.564102564102566,8.356333183542716,16.712666367085433
3,35,0,../static/images/invador4.png,1,80,2,40.0,right,74,2,784.0,-0.361325068528692,0,0,1,1840.0,160.0,11.5,23.0,8.378246632432237,16.756493264864474
3,36,0,../static/images/invador4.png,1,80,2,40.0,left,70,2,904.0,0.541318802853468,0,0,1,1920.0,164.0,11.707317073170731,23.414634146341463,8.400097258126406,16.800194516252812
3,37,0,../static/images/invador2.png,4,20,8,2.5,left,74,1,975.0,1.07538309342125,0,0,1,2000.0,168.0,11.904761904761905,95.23809523809524,8.421885240731685,67.37508192585348
3,38,0,../static/images/invador3.png,3,80,8,10.0,right,70,1,1101.0,2.02315915837251,0,0,1,2000.0,170.0,11.764705882352942,94.11764705882354,8.412219113007403,67.29775290405922
3,39,0,../static/images/invador4.png,1,80,2,40.0,left,70,2,588.0,-1.83564339178622,1,0,1,2000.0,172.0,11.627906976744185,23.25581395348837,8.4025640794767,16.8051281589534
3,40,0,../static/images/invador1.png,2,20,2,10.0,right,74,2,955.0,0.924942448190886,0,0,1,2080.0,176.0,11.818181818181818,23.636363636363637,8.424344990004903,16.848689980009805
3,41,0,../static/images/invador4.png,1,80,2,40.0,right,74,2,814.0,-0.135664100683152,0,0,1,2100.0,180.0,11.666666666666666,23.333333333333332,8.411660926721153,16.823321853442305
3,42,0,../static/images/invador1.png,2,20,2,10.0,right,70,1,528.0,-2.2869653274773,2,0,1,2180.0,184.0,11.847826086956522,23.695652173913043,8.433415757693624,16.866831515387247
3,43,0,../static/images/invador4.png,1,80,2,40.0,right,74,2,796.0,-0.271060681390476,0,0,1,2180.0,186.0,11.720430107526882,23.440860215053764,8.42373639594317,16.84747279188634
3,44,0,../static/images/invador2.png,4,20,8,2.5,left,74,1,981.0,1.12051528699035,0,0,1,2260.0,190.0,11.894736842105264,95.15789473684211,8.44545660801262,67.56365286410096
3,45,0,../static/images/invador4.png,1,80,2,40.0,right,74,2,784.0,-0.361325068528692,0,0,1,2260.0,192.0,11.770833333333334,23.541666666666668,8.435763426506403,16.871526853012806
3,46,0,../static/images/invador4.png,1,80,2,40.0,right,74,2,814.0,-0.135664100683152,0,0,1,2340.0,196.0,11.938775510204081,23.877551020408163,8.457449158540582,16.914898317081164
3,47,0,../static/images/invador4.png,1,80,2,40.0,left,70,2,799.0,-0.248494584605922,0,0,1,2420.0,200.0,12.1,24.2,8.479072720215958,16.958145440431917
3,48,0,../static/images/invador3.png,3,80,8,10.0,left,74,1,996.0,1.23334577091312,0,0,1,2500.0,204.0,12.254901960784315,98.03921568627452,8.500634289767401,68.00507431813921
3,49,0,../static/images/invador4.png,1,80,2,40.0,left,70,2,787.0,-0.338758971744138,0,0,1,2500.0,206.0,12.135922330097088,24.271844660194176,8.490877778673555,16.98175555734711
3,50,0,../static/images/invador4.png,1,80,2,40.0,right,74,2,843.0,0.08247483490087,0,0,1,2580.0,210.0,12.285714285714286,24.571428571428573,8.512405504556781,17.024811009113563
3,51,0,../static/images/invador4.png,1,80,2,40.0,left,70,2,811.0,-0.158230197467706,0,0,1,2660.0,214.0,12.429906542056075,24.85981308411215,8.533871513065643,17.067743026131286
3,52,0,../static/images/invador2.png,4,20,8,2.5,left,74,1,1001.0,1.27095593222071,0,0,1,2740.0,218.0,12.568807339449542,100.55045871559633,8.555275981136354,68.44220784909083
3,53,0,../static/images/invador3.png,3,80,8,10.0,right,74,2,676.0,-1.17370455277264,1,0,1,2740.0,220.0,12.454545454545455,99.63636363636364,8.545456755632047,68.36365404505638
3,54,0,../static/images/invador4.png,1,80,2,40.0,right,74,2,847.0,0.112562963946942,0,0,1,2820.0,230.0,12.26086956521739,24.52173913043478,8.537522159312466,17.075044318624933
3,55,0,../static/images/invador1.png,2,20,2,10.0,left,74,1,955.0,0.924942448190886,0,0,1,2900.0,234.0,12.393162393162394,24.786324786324787,8.558916161423962,17.117832322847924
3,56,0,../static/images/invador4.png,1,80,2,40.0,right,74,2,885.0,0.398400189884626,0,0,1,2900.0,236.0,12.288135593220339,24.576271186440678,8.54909275794209,17.09818551588418
3,57,0,../static/images/invador2.png,4,20,8,2.5,right,70,1,887.0,0.413444254407662,0,0,1,2980.0,240.0,12.416666666666666,99.33333333333333,8.57045358855321,68.56362870842568
3,58,0,../static/images/invador4.png,1,80,2,40.0,left,74,1,630.0,-1.51971803680246,2,0,1,2980.0,242.0,12.314049586776859,24.628099173553718,8.560616943114095,17.12123388622819
3,59,0,../static/images/invador4.png,1,80,2,40.0,right,74,2,775.0,-0.429023358882354,1,0,1,2980.0,244.0,12.21311475409836,24.42622950819672,8.550791587578425,17.10158317515685
3,60,0,../static/images/invador1.png,2,20,2,10.0,left,74,1,631.0,-1.51219600454095,2,0,1,3060.0,248.0,12.338709677419354,24.677419354838708,8.572147547851397,17.144295095702795
3,61,0,../static/images/invador3.png,3,80,8,10.0,right,70,1,1038.0,1.54927112589688,0,0,1,3060.0,250.0,12.24,97.92,8.562308958188813,68.49847166551051
3,62,0,../static/images/invador4.png,1,80,2,40.0,left,70,2,887.0,0.413444254407662,0,0,1,3060.0,252.0,12.142857142857142,24.285714285714285,8.552481660661137,17.104963321322273
3,63,0,../static/images/invador4.png,1,80,2,40.0,right,74,2,813.0,-0.14318613294467,0,0,1,3140.0,256.0,12.265625,24.53125,8.57383277569993,17.14766555139986
3,64,0,../static/images/invador4.png,1,80,2,40.0,right,74,2,647.0,-1.39184348835666,1,0,1,3220.0,260.0,12.384615384615385,24.76923076923077,8.595122679686193,17.190245359372387
3,65,0,../static/images/invador3.png,3,80,8,10.0,right,70,1,904.0,0.541318802853468,0,0,1,3300.0,264.0,12.5,100.0,8.616351548104577,68.93081238483661
3,66,0,../static/images/invador4.png,1,80,2,40.0,left,70,2,818.0,-0.10557597163708,0,0,1,3300.0,266.0,12.406015037593985,24.81203007518797,8.606462223778655,17.21292444755731
3,67,0,../static/images/invador1.png,2,20,2,10.0,left,74,1,850.0,0.135129060731496,2,0,1,3380.0,270.0,12.518518518518519,25.037037037037038,8.627658583101942,17.255317166203884
3,68,0,../static/images/invador4.png,1,80,2,40.0,right,74,2,854.0,0.165217189777568,0,0,1,3380.0,272.0,12.426470588235293,24.852941176470587,8.617756281248857,17.235512562497714
3,69,0,../static/images/invador2.png,4,20,8,2.5,left,70,2,631.0,-1.51219600454095,1,0,1,3460.0,276.0,12.53623188405797,100.28985507246377,8.638920261881673,69.11136209505338
3,70,0,../static/images/invador3.png,3,80,8,10.0,left,74,1,898.0,0.49618660928436,0,0,1,3480.0,286.0,12.167832167832168,97.34265734265735,8.595994662036981,68.76795729629585
3,71,0,../static/images/invador4.png,1,80,2,40.0,right,74,2,799.0,-0.248494584605922,0,0,1,3480.0,288.0,12.083333333333334,24.166666666666668,8.586128702106937,17.172257404213873
3,72,0,../static/images/invador4.png,1,80,2,40.0,left,70,2,886.0,0.405922222146144,0,0,1,3560.0,292.0,12.191780821917808,24.383561643835616,8.607383355166219,17.214766710332437
3,73,0,../static/images/invador4.png,1,80,2,40.0,left,70,2,928.0,0.7218475771299,0,0,1,3640.0,296.0,12.297297297297296,24.594594594594593,8.628577073717743,17.257154147435486
3,74,0,../static/images/invador4.png,1,80,2,40.0,right,74,2,999.0,1.25591186769768,0,0,1,3720.0,300.0,12.4,24.8,8.64971003245334,17.29942006490668
3,75,0,../static/images/invador1.png,2,20,2,10.0,left,70,2,921.0,0.669193351299274,0,0,1,3800.0,304.0,12.5,25.0,8.670782405564017,17.341564811128034
3,76,0,../static/images/invador2.png,4,20,8,2.5,right,70,1,1169.0,2.53465735215574,0,0,1,3820.0,308.0,12.402597402597403,99.22077922077922,8.657391836153428,69.25913468922742
3,77,0,../static/images/invador3.png,3,80,8,10.0,right,70,1,993.0,1.21077967412857,0,0,1,3820.0,310.0,12.32258064516129,98.58064516129032,8.64745540828064,69.17964326624512
3,78,0,../static/images/invador4.png,1,80,2,40.0,right,70,1,532.0,-2.25687719843123,2,0,1,3820.0,312.0,12.243589743589743,24.487179487179485,8.637530384835507,17.275060769671015
3,79,0,../static/images/invador4.png,1,80,2,40.0,left,70,2,954.0,0.917420415929368,0,0,1,3820.0,314.0,12.165605095541402,24.331210191082803,8.627616752728722,17.255233505457443
3,80,0,../static/images/invador1.png,2,20,2,10.0,right,74,2,1145.0,2.35412857787931,0,0,1,3900.0,318.0,12.264150943396226,24.528301886792452,8.648752464587908,17.297504929175815
3,81,0,../static/images/invador4.png,1,80,2,40.0,left,70,2,833.0,0.00725451228568999,0,0,1,3920.0,322.0,12.173913043478262,24.347826086956523,8.635425052341333,17.270850104682665
3,82,0,../static/images/invador4.png,1,80,2,40.0,right,74,2,779.0,-0.398935229836282,0,0,1,4000.0,326.0,12.269938650306749,24.539877300613497,8.656538378754284,17.31307675750857
3,83,0,../static/images/invador2.png,4,20,8,2.5,left,74,1,1082.0,1.88024054540367,0,0,1,4080.0,330.0,12.363636363636363,98.9090909090909,8.6775911758258,69.4207294066064
3,84,0,../static/images/invador2.png,4,20,8,2.5,right,70,1,985.0,1.15060341603643,0,0,1,4080.0,332.0,12.289156626506024,98.3132530120482,8.667631564379308,69.34105251503446
3,85,0,../static/images/invador3.png,3,80,8,10.0,right,70,1,860.0,0.210349383346676,0,0,1,4080.0,334.0,12.215568862275449,97.72455089820359,8.657683383969166,69.26146707175333
3,86,0,../static/images/invador4.png,1,80,2,40.0,left,70,2,801.0,-0.233450520082886,0,0,1,4080.0,336.0,12.142857142857142,24.285714285714285,8.647746621475525,17.29549324295105
3,87,0,../static/images/invador4.png,1,80,2,40.0,left,70,2,872.0,0.300613770484892,0,0,1,4160.0,340.0,12.235294117647058,24.470588235294116,8.668824623446909,17.337649246893818
3,88,0,../static/images/invador1.png,2,20,2,10.0,right,74,2,880.0,0.360790028577036,0,0,1,4240.0,344.0,12.325581395348838,24.651162790697676,8.68984219734774,17.37968439469548
3,89,0,../static/images/invador4.png,1,80,2,40.0,right,74,2,956.0,0.932464480452404,0,0,1,4260.0,348.0,12.241379310344827,24.482758620689655,8.676396985829983,17.352793971659967
3,90,0,../static/images/invador4.png,1,80,2,40.0,right,74,2,1117.0,2.1435116745568,0,0,1,4340.0,352.0,12.329545454545455,24.65909090909091,8.69739285068795,17.3947857013759
3,91,0,../static/images/invador4.png,1,80,2,40.0,left,74,1,970.0,1.03777293211366,2,0,1,4420.0,356.0,12.415730337078651,24.831460674157302,8.718328522952486,17.436657045904973
3,92,0,../static/images/invador4.png,1,80,2,40.0,right,74,2,936.0,0.782023835222044,1,0,1,4420.0,358.0,12.346368715083798,24.692737430167597,8.708322155656298,17.416644311312595
3,93,0,../static/images/invador1.png,2,20,2,10.0,right,74,2,888.0,0.42096628666918,0,0,1,4500.0,362.0,12.430939226519337,24.861878453038674,8.729226494931465,17.45845298986293
3,94,0,../static/images/invador4.png,1,80,2,40.0,left,70,2,838.0,0.04486467359328,0,0,1,4520.0,366.0,12.349726775956285,24.69945355191257,8.715668373417957,17.431336746835914
3,95,0,../static/images/invador3.png,3,80,8,10.0,left,74,1,902.0,0.526274738330432,0,0,1,4600.0,370.0,12.432432432432432,99.45945945945945,8.736551651979408,69.89241321583526
3,96,0,../static/images/invador2.png,4,20,8,2.5,left,70,0,NaN,NaN,0,1,1,4600.0,372.0,12.365591397849462,98.9247311827957,8.726524369283913,69.8121949542713
3,97,0,../static/images/invador4.png,1,80,2,40.0,right,74,2,1058.0,1.69971177112724,0,0,1,4600.0,382.0,12.041884816753926,24.083769633507853,8.67656032243333,17.35312064486666
3,98,0,../static/images/invador1.png,2,20,2,10.0,left,70,2,1012.0,1.35369828709741,0,0,1,4680.0,386.0,12.124352331606218,24.248704663212436,8.697555719025102,17.395111438050204
3,99,0,../static/images/invador2.png,4,20,8,2.5,left,74,1,844.0,0.089996867162388,0,0,1,4700.0,390.0,12.051282051282051,96.41025641025641,8.68408839377793,69.47270715022344
3,100,0,../static/images/invador4.png,1,80,2,40.0,left,70,2,988.0,1.17316951282098,0,0,1,4700.0,392.0,11.989795918367347,23.979591836734695,8.674121325219783,17.348242650439566
3,101,0,../static/images/invador4.png,1,80,2,40.0,right,74,2,1013.0,1.36122031935893,0,0,1,4780.0,396.0,12.070707070707071,24.141414141414142,8.69512371412021,17.39024742824042
3,102,0,../static/images/invador3.png,3,80,8,10.0,left,74,1,886.0,0.405922222146144,0,0,1,4860.0,400.0,12.15,97.2,8.716065891723575,69.7285271337886
3,103,0,../static/images/invador4.png,1,80,2,40.0,left,70,2,788.0,-0.33123693948262,0,0,1,4860.0,402.0,12.08955223880597,24.17910447761194,8.706062121337917,17.412124242675834
3,104,0,../static/images/invador4.png,1,80,2,40.0,left,70,2,819.0,-0.098053939375562,0,0,1,4940.0,406.0,12.167487684729064,24.334975369458128,8.726972939856868,17.453945879713736
3,105,0,../static/images/invador1.png,2,20,2,10.0,right,74,2,938.0,0.79706789974508,0,0,1,5020.0,410.0,12.24390243902439,24.48780487804878,8.747823809599907,17.495647619199815
3,106,0,../static/images/invador4.png,1,80,2,40.0,right,74,2,700.0,-0.993175778496204,1,0,1,5040.0,414.0,12.173913043478262,24.347826086956523,8.734212371844924,17.468424743689848
3,107,0,../static/images/invador3.png,3,80,8,10.0,right,70,1,845.0,0.097518899423906,0,0,1,5120.0,418.0,12.248803827751196,97.99043062200957,8.755042487016087,70.0403398961287
3,108,0,../static/images/invador4.png,1,80,2,40.0,right,74,2,819.0,-0.098053939375562,0,0,1,5120.0,420.0,12.19047619047619,24.38095238095238,8.74499398166461,17.48998796332922
3,109,0,../static/images/invador2.png,4,20,8,2.5,right,70,1,1081.0,1.87271851314215,0,0,1,5200.0,424.0,12.264150943396226,98.11320754716981,8.76579318727045,70.1263454981636
3,110,0,../static/images/invador4.png,1,80,2,40.0,right,74,2,936.0,0.782023835222044,0,0,1,5200.0,426.0,12.206572769953052,24.413145539906104,8.755732342918996,17.511464685837993
3,111,0,../static/images/invador4.png,1,80,2,40.0,left,70,2,847.0,0.112562963946942,0,0,1,5280.0,430.0,12.279069767441861,24.558139534883722,8.776500762947892,17.553001525895784
3,112,0,../static/images/invador2.png,4,20,8,2.5,right,70,1,928.0,0.7218475771299,0,0,1,5360.0,434.0,12.350230414746544,98.80184331797236,8.79720964244005,70.3776771395204
3,113,0,../static/images/invador4.png,1,80,2,40.0,left,70,2,656.0,-1.324145198003,1,0,1,5360.0,436.0,12.293577981651376,24.587155963302752,8.787112740191864,17.574225480383728
3,114,0,../static/images/invador4.png,1,80,2,40.0,left,70,2,989.0,1.1806915450825,0,0,1,5440.0,440.0,12.363636363636363,24.727272727272727,8.807791196434678,17.615582392869356
3,115,0,../static/images/invador3.png,3,80,8,10.0,right,70,1,825.0,-0.052921745806454,0,0,1,5520.0,444.0,12.432432432432432,99.45945945945945,8.828410370055996,70.62728296044797
3,116,0,../static/images/invador1.png,2,20,2,10.0,left,70,2,906.0,0.556362867376504,0,0,1,5520.0,446.0,12.376681614349776,24.753363228699552,8.818277657510043,17.636555315020086
3,117,0,../static/images/invador4.png,1,80,2,40.0,right,74,2,820.0,-0.090531907114044,0,0,1,5540.0,450.0,12.311111111111112,24.622222222222224,8.804464237133649,17.608928474267298
3,118,0,../static/images/invador4.png,1,80,2,40.0,left,70,2,826.0,-0.045399713544936,0,0,1,5620.0,454.0,12.37885462555066,24.75770925110132,8.825092948743038,17.650185897486075
3,119,0,../static/images/invador4.png,1,80,2,40.0,right,70,1,731.0,-0.759992778389146,2,0,1,5700.0,458.0,12.445414847161572,24.890829694323145,8.845662520342751,17.691325040685502
3,120,0,../static/images/invador4.png,1,80,2,40.0,right,70,1,767.0,-0.489199616974498,2,0,1,5700.0,460.0,12.391304347826088,24.782608695652176,8.835510006827842,17.671020013655685
3,121,0,../static/images/invador4.png,1,80,2,40.0,right,74,2,751.0,-0.609552133158786,1,0,1,5700.0,462.0,12.337662337662337,24.675324675324674,8.825369145750548,17.650738291501096
3,122,0,../static/images/invador1.png,2,20,2,10.0,left,70,2,1054.0,1.66962364208117,0,0,1,5780.0,466.0,12.40343347639485,24.8068669527897,8.845937925527,17.691875851054
3,123,0,../static/images/invador2.png,4,20,8,2.5,left,74,1,1049.0,1.63201348077358,0,0,1,5800.0,470.0,12.340425531914894,98.72340425531915,8.832045206523086,70.65636165218469
3,124,0,../static/images/invador4.png,1,80,2,40.0,left,70,2,938.0,0.79706789974508,0,0,1,5800.0,472.0,12.288135593220339,24.576271186440678,8.82190832213288,17.64381664426576
3,125,0,../static/images/invador3.png,3,80,8,10.0,right,70,1,892.0,0.451054415715252,0,0,1,5880.0,476.0,12.352941176470589,98.82352941176471,8.842487023670133,70.73989618936106
3,126,0,../static/images/invador2.png,4,20,8,2.5,left,74,1,1003.0,1.28599999674375,0,0,1,5880.0,478.0,12.301255230125523,98.41004184100419,8.832338154797196,70.65870523837756
3,127,0,../static/images/invador3.png,3,80,8,10.0,right,70,1,899.0,0.503708641545878,0,0,1,5880.0,480.0,12.25,98.0,8.822200934178774,70.57760747343019
3,128,0,../static/images/invador1.png,2,20,2,10.0,left,74,1,858.0,0.19530531882364,2,0,1,5880.0,482.0,12.199170124481327,24.398340248962654,8.81207534844571,17.62415069689142
3,129,0,../static/images/invador4.png,1,80,2,40.0,left,70,2,847.0,0.112562963946942,0,0,1,5880.0,484.0,12.148760330578513,24.297520661157026,8.801961384244189,17.603922768488378
3,130,0,../static/images/invador4.png,1,80,2,40.0,right,74,2,862.0,0.225393447869712,0,0,1,5960.0,488.0,12.21311475409836,24.42622950819672,8.822597271228704,17.645194542457407
3,131,0,../static/images/invador4.png,1,80,2,40.0,left,70,2,807.0,-0.188318326513778,1,0,1,6040.0,492.0,12.276422764227643,24.552845528455286,8.843173997632613,17.686347995265226
3,132,0,../static/images/invador4.png,1,80,2,40.0,left,70,2,556.0,-2.0763484241548,1,0,1,6120.0,496.0,12.338709677419354,24.677419354838708,8.863691733062112,17.727383466124223
3,133,0,../static/images/invador4.png,1,80,2,40.0,left,70,2,997.0,1.24086780317464,0,0,1,6200.0,500.0,12.4,24.8,8.884150646637154,17.76830129327431
3,134,0,../static/images/invador3.png,3,80,8,10.0,right,70,1,868.0,0.27052564143882,0,0,1,6280.0,504.0,12.46031746031746,99.68253968253968,8.904550906992856,71.23640725594285
3,135,0,../static/images/invador4.png,1,80,2,40.0,left,70,2,857.0,0.187783286562122,0,0,1,6280.0,506.0,12.411067193675889,24.822134387351777,8.894330804968895,17.78866160993779
