subj,trial_index_actual,block,stimulus,stim_rank,reward_percent,delay_s,profitability,stim_left_right,key_press,approach_avoid,rt,rt_z,force_trial,missed,order_condition,reward_sum,delay_sum,Q_arithmetic,opp_cost_arithmetic,Q_estimate,opp_cost_estimate,dv,dv_abs,choice_log_reg,reward_factor,delay_factor,stim_rank_factor,reward_factor_1back,delay_factor_1back,reward_factor_2back,delay_factor_2back,reward_factor_3back,delay_factor_3back,choice_log_reg_1back,choice_reward_1back_interaction,choice_delay_1back_interaction,change_delay,change_reward,stim_rank_factor_1back
1,1,-1,../static/images/invador3.png,1,80,2,40,right,74,2,718,-1.04463596508796,0,0,-1,20,12,1.66666666666667,3.33333333333333,4.83061244704086,9.66122489408172,70.3387751059183,70.3387751059183,1,1,1,1,-1,-1,NaN,NaN,NaN,NaN,1,-1,-1,2,0,-1
1,3,-1,../static/images/invador4.png,3,80,8,10,left,70,2,933,-0.0799260829312511,0,0,-1,100,26,3.84615384615385,30.7692307692308,4.56395019691982,36.5116015753585,43.4883984246415,43.4883984246415,1,1,-1,0,-1,1,1,1,-1,-1,NaN,NaN,NaN,4,80,0
1,5,-1,../static/images/invador3.png,1,80,2,40,right,74,2,628,-1.44846800878147,0,0,-1,260,40,6.5,13,7.79396488955931,15.5879297791186,64.4120702208814,64.4120702208814,1,1,1,1,1,1,1,-1,-1,1,1,1,1,10,80,1
1,7,-1,../static/images/invador3.png,1,80,2,40,right,74,2,884,-0.299790195608827,0,0,-1,340,46,7.39130434782609,14.7826086956522,8.58743009558104,17.1748601911621,62.8251398088379,62.8251398088379,1,1,1,1,1,1,1,1,1,1,0,0,0,4,80,1
1,8,-1,../static/images/invador4.png,3,80,8,10,right,74,2,492,-2.05870309702943,0,0,-1,420,50,8.4,67.2,9.97980510689214,79.8384408551371,0.161559144862863,0.161559144862863,1,1,-1,0,1,1,1,1,1,1,1,1,1,2,0,1
1,9,-1,../static/images/invador3.png,1,80,2,40,left,70,2,596,-1.59205273542805,0,0,-1,500,60,8.33333333333333,16.6666666666667,9.31382314913279,18.6276462982656,61.3723537017344,61.3723537017344,1,1,1,1,1,-1,1,1,1,1,1,1,-1,4,80,0
1,12,-1,../static/images/invador2.png,2,20,2,10,left,70,2,631,-1.43500694065835,0,0,-1,680,78,8.71794871794872,17.4358974358974,9.03850167484555,18.0770033496911,1.9229966503089,1.9229966503089,1,-1,1,0,1,1,-1,-1,1,1,1,1,1,10,20,1
1,13,-1,../static/images/invador3.png,1,80,2,40,left,70,2,824,-0.569011558071165,0,0,-1,700,82,8.53658536585366,17.0731707317073,8.0871796486492,16.1743592972984,63.8256407027016,63.8256407027016,1,1,1,1,-1,1,1,1,-1,-1,1,-1,1,4,80,0
1,14,-1,../static/images/invador3.png,1,80,2,40,left,70,2,1063,0.503386869070481,0,0,-1,780,86,9.06976744186047,18.1395348837209,9.57387661129284,19.1477532225857,60.8522467774143,60.8522467774143,1,1,1,1,1,1,-1,1,1,1,1,1,1,4,20,1
1,15,-1,../static/images/invador1.png,4,20,8,2.5,right,70,1,1007,0.252113597438965,0,0,-1,860,90,9.55555555555556,76.4444444444444,10.7802576653416,86.2420613227326,-66.2420613227326,66.2420613227326,0,-1,-1,-1,1,1,1,1,-1,1,1,1,1,4,80,1
1,16,-1,../static/images/invador2.png,2,20,2,10,right,70,1,1072,0.543770073439832,0,0,-1,860,92,9.34782608695652,18.695652173913,9.91594165825825,19.8318833165165,0.168116683483497,0.168116683483497,0,-1,1,0,-1,-1,1,1,1,1,0,-0,-0,4,80,-1
1,17,-1,../static/images/invador3.png,1,80,2,40,left,70,2,893,-0.259406991239476,0,0,-1,860,94,9.14893617021277,18.2978723404255,9.1209228964998,18.2418457929996,61.7581542070004,61.7581542070004,1,1,1,1,-1,1,-1,-1,1,1,0,-0,0,2,0,0
1,18,-1,../static/images/invador3.png,1,80,2,40,left,70,2,1044,0.418133437624074,0,0,-1,940,98,9.59183673469388,19.1836734693878,10.412708128605,20.82541625721,59.17458374279,59.17458374279,1,1,1,1,1,1,-1,1,-1,-1,1,1,1,2,0,1
1,19,-1,../static/images/invador3.png,1,80,2,40,left,70,2,1044,0.418133437624074,0,0,-1,1020,102,10,20,11.4609279535387,22.9218559070773,57.0781440929227,57.0781440929227,1,1,1,1,1,1,1,1,-1,1,1,1,1,4,80,1
1,20,-1,../static/images/invador4.png,3,80,8,10,left,74,1,870,-0.362608513516706,0,0,-1,1100,106,10.377358490566,83.0188679245283,12.3115064971509,98.4920519772074,-18.4920519772074,18.4920519772074,0,1,-1,0,1,1,1,1,1,1,1,1,1,4,80,1
1,21,-1,../static/images/invador2.png,2,20,2,10,right,70,1,1019,0.305957869931433,0,0,-1,1100,108,10.1851851851852,20.3703703703704,11.3244213580815,22.648842716163,-2.64884271616301,2.64884271616301,0,-1,1,0,1,-1,1,1,1,1,0,0,-0,4,80,0
1,22,-1,../static/images/invador3.png,1,80,2,40,left,70,2,1130,0.804017390486758,0,0,-1,1100,110,10,20,10.4164765802666,20.8329531605332,59.1670468394668,59.1670468394668,1,1,1,1,-1,1,1,-1,1,1,0,-0,0,2,0,0
1,23,-1,../static/images/invador4.png,3,80,8,10,left,74,1,712,-1.0715581013342,0,0,-1,1180,114,10.3508771929825,82.8070175438596,11.4639858656767,91.7118869254133,-11.7118869254133,11.7118869254133,0,1,-1,0,1,1,-1,1,1,-1,1,1,1,2,0,1
1,24,-1,../static/images/invador1.png,4,20,8,2.5,left,74,1,737,-0.959382533641555,0,0,-1,1180,116,10.1724137931034,81.3793103448276,10.5448513889065,84.358811111252,-64.358811111252,64.358811111252,0,-1,-1,-1,1,-1,1,1,-1,1,0,0,-0,4,80,0
1,25,-1,../static/images/invador3.png,1,80,2,40,left,70,2,1111,0.718763959040351,0,0,-1,1180,118,10,20,9.69940927326502,19.39881854653,60.60118145347,60.60118145347,1,1,1,1,-1,-1,1,-1,1,1,0,-0,-0,2,0,-1
1,27,-1,../static/images/invador3.png,1,80,2,40,right,74,2,1205,1.14054409356468,0,0,-1,1260,124,10.1612903225806,20.3225806451613,10.0096382112318,20.0192764224637,59.9807235775364,59.9807235775364,1,1,1,1,1,1,1,1,-1,-1,0,0,0,4,80,1
1,29,-1,../static/images/invador3.png,1,80,2,40,left,70,2,997,0.207243370361909,0,0,-1,1340,130,10.3076923076923,20.6153846153846,10.2411905551675,20.482381110335,59.517618889665,59.517618889665,1,1,1,1,1,1,1,1,1,1,0,0,0,4,80,1
1,32,-1,../static/images/invador1.png,4,20,8,2.5,right,70,1,830,-0.542089421824931,0,0,-1,1500,146,10.2739726027397,82.1917808219178,9.58803143002337,76.704251440187,-56.704251440187,56.704251440187,0,-1,-1,-1,1,-1,-1,1,1,1,1,1,-1,2,0,0
1,33,-1,../static/images/invador3.png,1,80,2,40,left,70,2,1107,0.700815868209529,0,0,-1,1500,148,10.1351351351351,20.2702702702703,8.81930313997237,17.6386062799447,62.3613937200552,62.3613937200552,1,1,1,1,-1,-1,1,-1,-1,1,0,-0,-0,10,80,-1
1,34,-1,../static/images/invador3.png,1,80,2,40,right,74,2,1262,1.3963043879039,0,0,-1,1580,152,10.3947368421053,20.7894736842105,10.1679586141146,20.3359172282291,59.6640827717709,59.6640827717709,1,1,1,1,1,1,-1,-1,1,-1,1,1,1,2,0,1
1,35,-1,../static/images/invador3.png,1,80,2,40,left,70,2,1328,1.69244788661247,0,0,-1,1660,156,10.6410256410256,21.2820512820513,11.2623258276933,22.5246516553865,57.4753483446135,57.4753483446135,1,1,1,1,1,1,1,1,-1,-1,1,1,1,4,80,1
1,36,-1,../static/images/invador3.png,1,80,2,40,left,70,2,1332,1.7103959774433,0,0,-1,1740,160,10.875,21.75,12.1503506947689,24.3007013895379,55.6992986104621,55.6992986104621,1,1,1,1,1,1,1,1,1,1,1,1,1,4,80,1
1,38,-1,../static/images/invador3.png,1,80,2,40,right,74,2,1164,0.956576162548749,0,0,-1,1840,174,10.5747126436782,21.1494252873563,8.88093973825696,17.7618794765139,62.2381205234861,62.2381205234861,1,1,1,1,-1,-1,1,1,1,1,1,-1,-1,4,80,-1
1,39,-1,../static/images/invador3.png,1,80,2,40,left,70,2,1452,2.24883870236797,0,0,-1,1920,178,10.7865168539326,21.5730337078652,10.2179736651135,20.4359473302269,59.5640526697731,59.5640526697731,1,1,1,1,1,1,-1,-1,1,1,1,1,1,10,20,1
1,40,-1,../static/images/invador4.png,3,80,8,10,right,70,1,1048,0.436081528454896,0,0,-1,2000,182,10.989010989011,87.9120879120879,11.3029105678646,90.4232845429165,-10.4232845429165,10.4232845429165,0,1,-1,0,1,1,1,1,-1,-1,1,1,1,4,80,1
1,41,-1,../static/images/invador2.png,2,20,2,10,left,74,1,1228,1.24374561584191,0,0,-1,2000,184,10.8695652173913,21.7391304347826,10.396690435312,20.793380870624,-0.793380870624006,0.793380870624006,0,-1,1,0,1,-1,1,1,1,1,0,0,-0,4,80,0
1,42,-1,../static/images/invador3.png,1,80,2,40,right,74,2,1304,1.58475934162754,0,0,-1,2000,186,10.752688172043,21.505376344086,9.56312724573999,19.12625449148,60.87374550852,60.87374550852,1,1,1,1,-1,1,1,-1,1,1,0,-0,0,2,0,0
1,43,-1,../static/images/invador2.png,2,20,2,10,left,74,1,906,-0.201075696039303,0,0,-1,2080,190,10.9473684210526,21.8947368421053,10.7715350868526,21.5430701737052,-1.54307017370518,1.54307017370518,0,-1,1,0,1,1,-1,1,1,-1,1,1,1,2,0,1
1,44,-1,../static/images/invador1.png,4,20,8,2.5,right,70,1,782,-0.757466511794801,0,0,-1,2080,192,10.8333333333333,86.6666666666667,9.90791841965938,79.263347357275,-59.263347357275,59.263347357275,0,-1,-1,-1,-1,1,1,1,-1,1,0,-0,0,4,80,0
1,45,-1,../static/images/invador3.png,1,80,2,40,left,70,2,1384,1.94372115824399,0,0,-1,2080,194,10.7216494845361,21.4432989690722,9.11354292764131,18.2270858552826,61.7729141447174,61.7729141447174,1,1,1,1,-1,-1,-1,1,1,1,0,-0,-0,2,0,-1
1,46,-1,../static/images/invador4.png,3,80,8,10,right,70,1,954,0.0143013939305671,0,0,-1,2160,198,10.9090909090909,87.2727272727273,10.4067196488852,83.2537571910813,-3.25375719108135,3.25375719108135,0,1,-1,0,1,1,-1,-1,-1,1,1,1,1,2,0,1
1,48,-1,../static/images/invador3.png,1,80,2,40,left,70,2,1212,1.17195325251862,0,0,-1,2160,202,10.6930693069307,21.3861386138614,8.80488115123021,17.6097623024604,62.3902376975396,62.3902376975396,1,1,1,1,1,1,1,-1,1,1,0,0,0,2,0,1
1,50,-1,../static/images/invador4.png,3,80,8,10,left,74,1,1032,0.364289165131606,0,0,-1,2240,208,10.7692307692308,86.1538461538462,9.34196973152444,74.7357578521955,5.26424214780445,5.26424214780445,0,1,-1,0,1,1,1,1,1,1,0,0,0,4,80,1
1,51,-1,../static/images/invador2.png,2,20,2,10,left,74,1,1086,0.60658839134771,0,0,-1,2240,210,10.6666666666667,21.3333333333333,8.59296964012555,17.1859392802511,2.8140607197489,2.8140607197489,0,-1,1,0,1,-1,1,1,1,1,0,0,-0,2,0,0
1,52,-1,../static/images/invador1.png,4,20,8,2.5,right,70,1,990,0.17583421140797,0,0,-1,2240,212,10.5660377358491,84.5283018867924,7.9040212458567,63.2321699668536,-43.2321699668536,43.2321699668536,0,-1,-1,-1,-1,1,1,-1,1,1,0,-0,0,2,0,0
1,53,-1,../static/images/invador3.png,1,80,2,40,right,74,2,1172,0.992472344210395,0,0,-1,2240,214,10.4672897196262,20.9345794392523,7.27030985460823,14.5406197092165,65.4593802907835,65.4593802907835,1,1,1,1,-1,-1,-1,1,1,-1,0,-0,-0,2,0,-1
1,56,-1,../static/images/invador1.png,4,20,8,2.5,left,74,1,1077,0.56620518697836,0,0,-1,2400,224,10.7142857142857,85.7142857142857,9.66264817125536,77.3011853700429,-57.3011853700429,57.3011853700429,0,-1,-1,-1,1,1,1,1,1,1,1,1,1,2,0,1
1,57,-1,../static/images/invador3.png,1,80,2,40,left,70,2,1216,1.18990134334944,0,0,-1,2400,226,10.6194690265487,21.2389380530973,8.88793742272839,17.7758748454568,62.2241251545432,62.2241251545432,1,1,1,1,-1,-1,1,1,1,1,0,-0,-0,4,80,-1
1,61,-1,../static/images/invador4.png,3,80,8,10,right,70,1,1122,0.768121208825113,0,0,-1,2560,238,10.7563025210084,86.0504201680672,10.0305708852884,80.244567082307,-0.244567082306972,0.244567082306972,0,1,-1,0,1,1,1,1,1,1,1,1,1,2,0,1
1,62,-1,../static/images/invador2.png,2,20,2,10,right,70,1,1212,1.17195325251862,0,0,-1,2560,240,10.6666666666667,21.3333333333333,9.22636163116161,18.4527232623232,1.54727673767679,1.54727673767679,0,-1,1,0,1,-1,1,1,1,1,0,0,-0,4,80,0
1,63,-1,../static/images/invador3.png,1,80,2,40,left,70,2,1288,1.51296697830425,0,0,-1,2560,242,10.5785123966942,21.1570247933884,8.48663051410396,16.9732610282079,63.0267389717921,63.0267389717921,1,1,1,1,-1,1,1,-1,1,1,0,-0,0,2,0,0
1,64,-1,../static/images/invador2.png,2,20,2,10,right,70,1,926,-0.111335241885191,0,0,-1,2640,246,10.7317073170732,21.4634146341463,9.8980112320101,19.7960224640202,0.203977535979799,0.203977535979799,0,-1,1,0,1,1,-1,1,1,-1,1,1,1,2,0,1
1,65,-1,../static/images/invador3.png,1,80,2,40,right,74,2,1307,1.59822040975065,0,0,-1,2640,248,10.6451612903226,21.2903225806452,9.10443005689393,18.2088601137879,61.7911398862121,61.7911398862121,1,1,1,1,-1,1,1,1,-1,1,0,-0,0,4,80,0
1,66,-1,../static/images/invador3.png,1,80,2,40,left,70,2,1225,1.23028454771879,0,0,-1,2720,252,10.7936507936508,21.5873015873016,10.3993250049908,20.7986500099815,59.2013499900185,59.2013499900185,1,1,1,1,1,1,-1,1,1,1,1,1,1,2,0,1
1,67,-1,../static/images/invador1.png,4,20,8,2.5,right,70,1,799,-0.681187125763806,0,0,-1,2800,256,10.9375,87.5,11.4500682106469,91.6005456851754,-71.6005456851754,71.6005456851754,0,-1,-1,-1,1,1,1,1,-1,1,1,1,1,4,80,1
1,68,-1,../static/images/invador3.png,1,80,2,40,right,74,2,1272,1.44117461498096,0,0,-1,2800,258,10.8527131782946,21.7054263565891,10.5320495932928,21.0640991865856,58.9359008134144,58.9359008134144,1,1,1,1,-1,-1,1,1,1,1,0,-0,-0,4,80,-1
1,70,-1,../static/images/invador2.png,2,20,2,10,right,70,1,992,0.184808256823381,0,0,-1,2960,272,10.8823529411765,21.7647058823529,10.3103137540308,20.6206275080616,-0.620627508061613,0.620627508061613,0,-1,1,0,1,-1,1,1,-1,-1,1,1,-1,4,80,0
1,71,-1,../static/images/invador3.png,1,80,2,40,left,70,2,1322,1.66552575036624,0,0,-1,2960,274,10.8029197080292,21.6058394160584,9.48367588578113,18.9673517715623,61.0326482284377,61.0326482284377,1,1,1,1,-1,1,1,-1,1,1,0,-0,0,10,80,0
1,72,-1,../static/images/invador3.png,1,80,2,40,left,70,2,1277,1.46360972851949,0,0,-1,3040,278,10.9352517985612,21.8705035971223,10.7070642378624,21.4141284757248,58.5858715242752,58.5858715242752,1,1,1,1,1,1,-1,1,1,-1,1,1,1,2,0,1
1,73,-1,../static/images/invador3.png,1,80,2,40,left,70,2,1295,1.54437613725819,0,0,-1,3120,282,11.063829787234,22.1276595744681,11.6997833775251,23.3995667550502,56.6004332449498,56.6004332449498,1,1,1,1,1,1,1,1,-1,1,1,1,1,4,80,1
1,74,-1,../static/images/invador4.png,3,80,8,10,right,70,1,899,-0.232484854993243,0,0,-1,3200,286,11.1888111888112,89.5104895104895,12.5053258600705,100.042606880564,-20.0426068805639,20.0426068805639,0,1,-1,0,1,1,1,1,1,1,1,1,1,4,80,1
1,76,-1,../static/images/invador3.png,1,80,2,40,left,70,2,3,-4.25285720109749,0,0,-1,3200,290,11.0344827586207,22.0689655172414,10.5804625924675,21.1609251849351,58.8390748150649,58.8390748150649,1,1,1,1,-1,-1,1,-1,1,1,0,-0,-0,2,0,-1
1,77,-1,../static/images/invador2.png,2,20,2,10,left,74,1,975,0.108528870792385,0,0,-1,3280,294,11.156462585034,22.312925170068,11.5970524039283,23.1941048078566,-3.19410480785662,3.19410480785662,0,-1,1,0,1,1,-1,-1,1,-1,1,1,1,2,0,1
1,78,-1,../static/images/invador3.png,1,80,2,40,left,70,2,1388,1.96166924907481,0,0,-1,3280,296,11.0810810810811,22.1621621621622,10.6672492082287,21.3344984164575,58.6655015835425,58.6655015835425,1,1,1,1,-1,1,1,1,-1,-1,0,-0,0,4,80,0
1,80,-1,../static/images/invador4.png,3,80,8,10,right,70,1,849,-0.456835990378524,0,0,-1,3440,304,11.3157894736842,90.5263157894737,12.4791095749807,99.8328765998454,-19.8328765998454,19.8328765998454,0,1,-1,0,1,1,1,1,-1,1,1,1,1,4,80,1
1,81,-1,../static/images/invador3.png,1,80,2,40,right,74,2,1271,1.43668759227325,0,0,-1,3440,306,11.2418300653595,22.483660130719,11.4785867215725,22.9571734431451,57.0428265568549,57.0428265568549,1,1,1,1,1,-1,1,1,1,1,0,0,-0,4,80,0
1,83,-1,../static/images/invador1.png,4,20,8,2.5,left,74,1,1035,0.377750233254723,0,0,-1,3520,312,11.2820512820513,90.2564102564103,11.3376017182248,90.700813745798,-70.700813745798,70.700813745798,0,-1,-1,-1,1,1,1,1,1,-1,0,0,0,4,80,1
1,84,-1,../static/images/invador3.png,1,80,2,40,left,70,2,1272,1.44117461498096,0,0,-1,3520,314,11.2101910828025,22.4203821656051,10.4286001942165,20.857200388433,59.142799611567,59.142799611567,1,1,1,1,-1,-1,1,1,1,1,0,-0,-0,2,0,-1
1,85,-1,../static/images/invador3.png,1,80,2,40,left,70,2,1266,1.41425247873472,0,0,-1,3600,318,11.3207547169811,22.6415094339623,11.4738235787704,22.9476471575408,57.0523528424592,57.0523528424592,1,1,1,1,1,1,-1,-1,1,1,1,1,1,2,0,1
1,88,-1,../static/images/invador3.png,1,80,2,40,left,70,2,1360,1.83603261325905,0,0,-1,3680,326,11.2883435582822,22.5766871165644,10.425330062098,20.8506601241959,59.1493398758041,59.1493398758041,1,1,1,1,-1,1,1,-1,1,1,0,-0,0,2,0,0
1,89,-1,../static/images/invador1.png,4,20,8,2.5,left,74,1,724,-1.01771382884173,0,0,-1,3760,330,11.3939393939394,91.1515151515152,11.471170028295,91.7693602263596,-71.7693602263596,71.7693602263596,0,-1,-1,-1,1,1,-1,1,1,-1,1,1,1,2,0,1
1,90,-1,../static/images/invador3.png,1,80,2,40,right,74,2,1119,0.754660140701996,0,0,-1,3760,332,11.3253012048193,22.6506024096386,10.5514595553899,21.1029191107798,58.8970808892202,58.8970808892202,1,1,1,1,-1,-1,1,1,-1,1,0,-0,-0,4,80,-1
1,94,-1,../static/images/invador3.png,1,80,2,40,left,70,2,1179,1.02388150316433,0,0,-1,3960,354,11.1864406779661,22.3728813559322,8.9306419065316,17.8612838130632,62.1387161869368,62.1387161869368,1,1,1,1,1,1,-1,1,-1,-1,1,1,1,4,20,1
1,96,-1,../static/images/invador3.png,1,80,2,40,right,74,2,1010,0.265574665562082,0,0,-1,4120,368,11.195652173913,22.3913043478261,9.48969680745243,18.9793936149049,61.0206063850951,61.0206063850951,1,1,1,1,1,-1,1,1,1,1,1,1,-1,4,80,0
1,97,-1,../static/images/invador3.png,1,80,2,40,right,74,2,1157,0.92516700359481,0,0,-1,4200,372,11.2903225806452,22.5806451612903,10.7119499180075,21.423899836015,58.576100163985,58.576100163985,1,1,1,1,1,1,1,-1,1,1,1,1,1,10,80,1
1,99,-1,../static/images/invador3.png,1,80,2,40,right,74,2,1374,1.89885093116693,0,0,-1,4280,378,11.3227513227513,22.6455026455026,10.7653902734245,21.530780546849,58.469219453151,58.469219453151,1,1,1,1,-1,1,1,1,1,1,0,-0,0,4,80,0
1,100,-1,../static/images/invador3.png,1,80,2,40,left,70,2,1083,0.593127323224593,0,0,-1,4360,382,11.413612565445,22.8272251308901,11.7471120706131,23.4942241412263,56.5057758587737,56.5057758587737,1,1,1,1,1,1,-1,1,1,1,1,1,1,2,0,1
1,104,-1,../static/images/invador4.png,3,80,8,10,left,74,1,987,0.162373143284853,0,0,-1,4540,402,11.2935323383085,90.3482587064677,8.35432274567891,66.8345819654313,13.1654180345687,13.1654180345687,0,1,-1,0,1,1,-1,-1,1,1,0,0,0,10,20,1
1,105,-1,../static/images/invador3.png,1,80,2,40,left,70,2,1207,1.14951813898009,0,0,-1,4540,404,11.2376237623762,22.4752475247525,7.68450806206098,15.369016124122,64.630983875878,64.630983875878,1,1,1,1,1,-1,1,1,-1,-1,0,0,-0,2,0,0
1,106,-1,../static/images/invador3.png,1,80,2,40,left,70,2,1115,0.736712049871174,0,0,-1,4620,408,11.3235294117647,22.6470588235294,9.24712853467071,18.4942570693414,61.5057429306586,61.5057429306586,1,1,1,1,1,1,1,-1,1,1,1,1,1,2,0,1
1,108,-1,../static/images/invador4.png,3,80,8,10,right,70,1,1624,3.02060660809334,0,0,-1,4780,416,11.4903846153846,91.9230769230769,11.5440283058597,92.3522264468777,-12.3522264468777,12.3522264468777,0,1,-1,0,1,1,1,1,1,1,1,1,1,4,80,1
1,109,-1,../static/images/invador3.png,1,80,2,40,right,74,2,984,0.148912075161736,0,0,-1,4780,418,11.4354066985646,22.8708133971292,10.6184763607466,21.2369527214932,58.7630472785068,58.7630472785068,1,1,1,1,1,-1,1,1,1,1,0,0,-0,4,80,0
1,110,-1,../static/images/invador1.png,4,20,8,2.5,right,70,1,977,0.117502916207797,0,0,-1,4860,422,11.5165876777251,92.1327014218009,11.6278986967487,93.0231895739894,-73.0231895739894,73.0231895739894,0,-1,-1,-1,1,1,1,-1,1,1,1,1,1,2,0,1
1,113,-1,../static/images/invador3.png,1,80,2,40,right,74,2,1289,1.51745400101195,0,0,-1,4860,428,11.3551401869159,22.7102803738318,9.04931496385429,18.0986299277086,61.9013700722914,61.9013700722914,1,1,1,1,1,-1,-1,1,-1,-1,0,0,-0,2,0,0
1,114,-1,../static/images/invador3.png,1,80,2,40,left,70,2,1000,0.220704438485026,0,0,-1,4940,432,11.4351851851852,22.8703703703704,10.3546018329484,20.7092036658969,59.2907963341031,59.2907963341031,1,1,1,1,1,1,1,-1,-1,1,1,1,1,2,0,1
1,116,-1,../static/images/invador2.png,2,20,2,10,right,70,1,1027,0.341854051593078,0,0,-1,5100,440,11.5909090909091,23.1818181818182,12.2732462917345,24.546492583469,-4.54649258346895,4.54649258346895,0,-1,1,0,1,1,1,1,1,1,1,1,1,4,80,1
1,117,-1,../static/images/invador3.png,1,80,2,40,right,74,2,1054,0.46300366470113,0,0,-1,5100,442,11.5384615384615,23.0769230769231,11.2892286960395,22.5784573920789,57.4215426079211,57.4215426079211,1,1,1,1,-1,1,1,1,1,1,0,-0,0,4,80,0
1,118,-1,../static/images/invador1.png,4,20,8,2.5,left,74,1,790,-0.721570330133156,0,0,-1,5180,446,11.6143497757848,92.914798206278,12.1721810418322,97.3774483346578,-77.3774483346578,77.3774483346578,0,-1,-1,-1,1,1,-1,1,1,1,1,1,1,2,0,1
1,119,-1,../static/images/invador3.png,1,80,2,40,right,74,2,1156,0.920679980887104,0,0,-1,5180,448,11.5625,23.125,11.1962664355056,22.3925328710111,57.6074671289889,57.6074671289889,1,1,1,1,-1,-1,1,1,-1,1,0,-0,-0,4,80,-1
1,121,-1,../static/images/invador4.png,3,80,8,10,right,70,1,1023,0.323905960762256,0,0,-1,5260,454,11.5859030837004,92.6872246696035,11.1268801639822,89.0150413118573,-9.01504131185732,9.01504131185732,0,1,-1,0,-1,1,1,1,-1,-1,0,-0,0,4,80,0
1,122,-1,../static/images/invador3.png,1,80,2,40,right,74,2,1139,0.844400594856109,0,0,-1,5260,456,11.5350877192982,23.0701754385965,10.234773413552,20.469546827104,59.530453172896,59.530453172896,1,1,1,1,1,-1,-1,1,1,1,0,0,-0,2,0,0
1,123,-1,../static/images/invador1.png,4,20,8,2.5,right,70,1,851,-0.447861944963113,0,0,-1,5340,460,11.6086956521739,92.8695652173913,11.316542732817,90.532341862536,-70.532341862536,70.532341862536,0,-1,-1,-1,1,1,1,-1,-1,1,1,1,1,2,0,1
1,125,-1,../static/images/invador3.png,1,80,2,40,right,74,2,1302,1.57578529621213,0,0,-1,5420,466,11.6309012875536,23.2618025751073,11.4581053241677,22.9162106483355,57.0837893516645,57.0837893516645,1,1,1,1,1,1,-1,-1,1,1,1,1,1,2,0,1
1,126,-1,../static/images/invador3.png,1,80,2,40,right,74,2,1299,1.56232422808901,0,0,-1,5500,470,11.7021276595745,23.4042553191489,12.309216073022,24.618432146044,55.381567853956,55.381567853956,1,1,1,1,1,1,1,1,-1,-1,1,1,1,4,80,1
1,127,-1,../static/images/invador3.png,1,80,2,40,right,74,2,1198,1.10913493461074,0,0,-1,5580,474,11.7721518987342,23.5443037974684,12.999850350292,25.9997007005841,54.0002992994159,54.0002992994159,1,1,1,1,1,1,1,1,1,1,1,1,1,4,80,1
1,128,-1,../static/images/invador3.png,1,80,2,40,left,70,2,1135,0.826452504025286,0,0,-1,5660,478,11.8410041841004,23.6820083682008,13.5602659079412,27.1205318158824,52.8794681841176,52.8794681841176,1,1,1,1,1,1,1,1,1,1,1,1,1,4,80,1
1,129,-1,../static/images/invador3.png,1,80,2,40,right,74,2,1117,0.745686095286585,0,0,-1,5740,482,11.9087136929461,23.8174273858921,14.0150154151575,28.0300308303149,51.9699691696851,51.9699691696851,1,1,1,1,1,1,1,1,1,1,1,1,1,4,80,1
1,130,-1,../static/images/invador1.png,4,20,8,2.5,right,70,1,927,-0.106848219177485,0,0,-1,5820,486,11.9753086419753,95.8024691358025,14.3840221486266,115.072177189013,-95.0721771890131,95.0721771890131,0,-1,-1,-1,1,1,1,1,1,1,1,1,1,4,80,1
1,132,-1,../static/images/invador4.png,3,80,8,10,right,70,1,978,0.121989938915502,0,0,-1,5820,490,11.8775510204082,95.0204081632653,12.1699834115247,97.3598672921975,-17.3598672921975,17.3598672921975,0,1,-1,0,-1,1,-1,-1,1,1,0,-0,0,2,0,0
1,133,-1,../static/images/invador1.png,4,20,8,2.5,right,70,1,957,0.027762462053684,0,0,-1,5820,492,11.8292682926829,94.6341463414634,11.1942450020118,89.5539600160946,-69.5539600160946,69.5539600160946,0,-1,-1,-1,1,-1,-1,1,-1,-1,0,0,-0,2,0,0
1,134,-1,../static/images/invador3.png,1,80,2,40,left,70,2,1270,1.43220056956555,0,0,-1,5820,494,11.7813765182186,23.5627530364372,10.2967372203975,20.593474440795,59.406525559205,59.406525559205,1,1,1,1,-1,-1,1,-1,-1,1,0,-0,-0,2,0,-1
1,135,-1,../static/images/invador2.png,2,20,2,10,right,70,1,882,-0.308764241024238,0,0,-1,5900,498,11.8473895582329,23.6947791164659,11.3668232973796,22.7336465947591,-2.73364659475912,2.73364659475912,0,-1,1,0,1,1,-1,-1,1,-1,1,1,1,2,0,1
1,137,-1,../static/images/invador3.png,1,80,2,40,left,70,2,1095,0.646971595717061,0,0,-1,5980,504,11.8650793650794,23.7301587301587,11.4956343266366,22.9912686532732,57.0087313467268,57.0087313467268,1,1,1,1,1,1,-1,1,1,1,1,1,1,2,0,1
1,138,-1,../static/images/invador4.png,3,80,8,10,right,70,1,924,-0.120309287300602,0,0,-1,6060,508,11.9291338582677,95.4330708661417,12.3396690023636,98.7173520189087,-18.7173520189087,18.7173520189087,0,1,-1,0,1,1,1,1,-1,1,1,1,1,4,80,1
1,139,-1,../static/images/invador3.png,1,80,2,40,left,70,2,1440,2.1949944298755,0,0,-1,6060,510,11.8823529411765,23.7647058823529,11.3503259113221,22.7006518226442,57.2993481773558,57.2993481773558,1,1,1,1,1,-1,1,1,1,1,0,0,-0,4,80,0
1,142,-1,../static/images/invador3.png,1,80,2,40,left,70,2,951,0.000840325807450209,0,0,-1,6220,520,11.9615384615385,23.9230769230769,12.1337509078443,24.2675018156887,55.7324981843113,55.7324981843113,1,1,1,1,1,1,1,1,1,1,1,1,1,2,0,1
1,143,-1,../static/images/invador1.png,4,20,8,2.5,left,74,1,971,0.0905807799615628,0,0,-1,6300,524,12.0229007633588,96.1832061068702,12.8574690471518,102.859752377214,-82.8597523772143,82.8597523772143,0,-1,-1,-1,1,1,1,1,1,1,1,1,1,4,80,1
1,145,-1,../static/images/invador2.png,2,20,2,10,right,70,1,1004,0.238652529315849,0,0,-1,6380,530,12.0377358490566,24.0754716981132,12.6082401318837,25.2164802637674,-5.21648026376737,5.21648026376737,0,-1,1,0,1,1,-1,-1,1,1,1,1,1,2,0,1
1,146,-1,../static/images/invador4.png,3,80,8,10,right,70,1,891,-0.268381036654888,0,0,-1,6380,532,11.9924812030075,95.9398496240601,11.5973641300815,92.7789130406523,-12.7789130406523,12.7789130406523,0,1,-1,0,-1,1,1,1,-1,-1,0,-0,0,4,80,0
1,147,-1,../static/images/invador2.png,2,20,2,10,left,74,1,880,-0.31773828643965,0,0,-1,6380,534,11.9475655430712,23.8951310861423,10.6675359414818,21.3350718829635,-1.33507188296351,1.33507188296351,0,-1,1,0,1,-1,-1,1,1,1,0,0,-0,2,0,0
1,149,-1,../static/images/invador3.png,1,80,2,40,left,70,2,1059,0.485438778239658,0,0,-1,6400,546,11.7216117216117,23.4432234432234,6.94936832391524,13.8987366478305,66.1012633521695,66.1012633521695,1,1,1,1,-1,-1,-1,1,1,-1,1,-1,-1,2,0,-1
1,150,-1,../static/images/invador3.png,1,80,2,40,right,74,2,965,0.063658643715329,0,0,-1,6480,550,11.7818181818182,23.5636363636364,8.65059899673424,17.3011979934685,62.6988020065315,62.6988020065315,1,1,1,1,1,1,-1,-1,-1,1,1,1,1,10,20,1
1,151,-1,../static/images/invador4.png,3,80,8,10,left,74,1,975,0.108528870792385,0,0,-1,6560,554,11.841155234657,94.7292418772563,10.0310635458822,80.2485083670572,-0.248508367057241,0.248508367057241,0,1,-1,0,1,1,1,1,-1,-1,1,1,1,4,80,1
1,153,-1,../static/images/invador3.png,1,80,2,40,right,74,2,903,-0.21453676416242,0,0,-1,6640,560,11.8571428571429,23.7142857142857,10.4986341646877,20.9972683293753,59.0027316706247,59.0027316706247,1,1,1,1,1,1,1,-1,1,1,1,1,1,2,0,1
1,185,1,../static/images/invador1.png,4,20,8,2.5,right,70,1,898,-0.236971877700948,0,0,-1,7220,802,9.00249376558603,72.0199501246883,3.46942023465386,27.7553618772309,-7.75536187723088,7.75536187723088,0,-1,-1,-1,-1,-1,1,-1,-1,-1,1,-1,-1,10,80,-1
1,186,1,../static/images/invador2.png,2,20,2,10,right,74,2,1039,0.395698324085546,0,0,-1,7220,804,8.98009950248756,17.9601990049751,3.19125661953445,6.38251323906891,13.6174867609311,13.6174867609311,1,-1,1,0,-1,-1,-1,-1,1,-1,0,-0,-0,10,20,-1
1,188,1,../static/images/invador1.png,4,20,8,2.5,right,70,1,820,-0.586959648901987,0,0,-1,7260,818,8.87530562347188,71.0024449877751,2.86364217608218,22.9091374086574,-2.9091374086574,2.9091374086574,0,-1,-1,-1,-1,-1,-1,1,-1,-1,1,-1,-1,4,20,-1
1,189,1,../static/images/invador1.png,4,20,8,2.5,right,70,1,878,-0.326712331855061,0,0,-1,7260,820,8.85365853658537,70.8292682926829,2.63404731404987,21.072378512399,-1.072378512399,1.072378512399,0,-1,-1,-1,-1,-1,-1,-1,-1,1,0,-0,-0,10,20,-1
1,190,1,../static/images/invador1.png,4,20,8,2.5,right,70,1,947,-0.0171077650233723,0,0,-1,7260,822,8.83211678832117,70.6569343065693,2.42286040853949,19.3828832683159,0.617116731684117,0.617116731684117,0,-1,-1,-1,-1,-1,-1,-1,-1,-1,0,-0,-0,2,0,-1
1,191,1,../static/images/invador4.png,3,80,8,10,right,74,2,1090,0.624536482178533,0,0,-1,7260,824,8.81067961165049,70.4854368932039,2.22860558652705,17.8288446922164,62.1711553077836,62.1711553077836,1,1,-1,0,-1,-1,-1,-1,-1,-1,0,-0,-0,2,0,-1
1,192,1,../static/images/invador3.png,1,80,2,40,left,70,2,1140,0.848887617563814,0,0,-1,7340,834,8.80095923261391,17.6019184652278,4.41890499372619,8.83780998745238,71.1621900125476,71.1621900125476,1,1,1,1,1,-1,-1,-1,-1,-1,1,1,-1,2,0,0
1,193,1,../static/images/invador2.png,2,20,2,10,left,74,1,664,-1.28693519130407,0,0,-1,7420,838,8.85441527446301,17.708830548926,6.59725315947846,13.1945063189569,6.80549368104309,6.80549368104309,0,-1,1,0,1,1,1,-1,-1,-1,1,1,1,10,80,1
1,195,1,../static/images/invador1.png,4,20,8,2.5,left,74,1,1017,0.296983824516022,0,0,-1,7420,842,8.81235154394299,70.4988123515439,5.5817809985886,44.6542479887088,-24.6542479887088,24.6542479887088,0,-1,-1,-1,-1,-1,-1,1,1,1,0,-0,-0,2,0,-1
1,196,1,../static/images/invador1.png,4,20,8,2.5,left,74,1,902,-0.219023786870126,0,0,-1,7420,844,8.7914691943128,70.3317535545024,5.13425712533053,41.0740570026442,-21.0740570026442,21.0740570026442,0,-1,-1,-1,-1,-1,-1,-1,-1,1,0,-0,-0,2,0,-1
1,197,1,../static/images/invador1.png,4,20,8,2.5,left,74,1,846,-0.470297058501641,0,0,-1,7420,846,8.77068557919622,70.1654846335697,4.72261384595218,37.7809107676174,-17.7809107676174,17.7809107676174,0,-1,-1,-1,-1,-1,-1,-1,-1,-1,0,-0,-0,2,0,-1
1,198,1,../static/images/invador4.png,3,80,8,10,left,70,2,1011,0.270061688269788,0,0,-1,7420,848,8.75,70,4.34397440438736,34.7517952350989,45.2482047649011,45.2482047649011,1,1,-1,0,-1,-1,-1,-1,-1,-1,0,-0,-0,2,0,-1
1,201,1,../static/images/invador1.png,4,20,8,2.5,right,74,2,1079,0.575179232393771,0,0,-1,7600,866,8.77598152424942,70.2078521939954,7.41169707672451,59.2935766137961,-39.2935766137961,39.2935766137961,1,-1,-1,-1,1,1,-1,1,1,-1,1,1,1,4,20,1
1,202,1,../static/images/invador1.png,4,20,8,2.5,right,70,1,849,-0.456835990378524,0,0,-1,7620,876,8.6986301369863,69.5890410958904,5.4334033787771,43.4672270302168,-23.4672270302168,23.4672270302168,0,-1,-1,-1,-1,-1,1,1,-1,1,1,-1,-1,4,80,-1
1,204,1,../static/images/invador1.png,4,20,8,2.5,right,70,1,861,-0.402991717886057,0,0,-1,7620,880,8.65909090909091,69.2727272727273,4.59707502564942,36.7766002051953,-16.7766002051953,16.7766002051953,0,-1,-1,-1,1,1,-1,-1,-1,-1,0,0,0,2,0,1
1,205,1,../static/images/invador1.png,4,20,8,2.5,right,70,1,787,-0.735031398256273,0,0,-1,7620,882,8.63945578231293,69.1156462585034,4.22850076204847,33.8280060963877,-13.8280060963877,13.8280060963877,0,-1,-1,-1,-1,-1,1,1,-1,-1,0,-0,-0,2,0,-1
1,207,1,../static/images/invador4.png,3,80,8,10,right,74,2,944,-0.0305688331464892,0,0,-1,7640,894,8.54586129753915,68.3668903803132,3.20910535003403,25.6728428002723,54.3271571997277,54.3271571997277,1,1,-1,0,-1,-1,-1,-1,-1,-1,1,-1,-1,2,0,-1
1,208,1,../static/images/invador1.png,4,20,8,2.5,left,74,1,789,-0.726057352840862,0,0,-1,7720,904,8.53982300884956,68.3185840707965,5.0380951050312,40.3047608402496,-20.3047608402496,20.3047608402496,0,-1,-1,-1,1,-1,-1,-1,-1,-1,1,1,-1,10,20,0
1,209,1,../static/images/invador2.png,2,20,2,10,left,70,2,1172,0.992472344210395,0,0,-1,7720,906,8.52097130242826,17.0419426048565,4.63416169456307,9.26832338912614,10.7316766108739,10.7316766108739,1,-1,1,0,-1,-1,1,-1,-1,-1,0,-0,-0,10,80,-1
1,210,1,../static/images/invador1.png,4,20,8,2.5,right,70,1,856,-0.425426831424585,0,0,-1,7740,910,8.50549450549451,68.043956043956,4.51327559065338,36.106204725227,-16.106204725227,16.106204725227,0,-1,-1,-1,-1,1,-1,-1,1,-1,1,-1,1,2,0,0
1,211,1,../static/images/invador4.png,3,80,8,10,right,74,2,815,-0.609394762440515,0,0,-1,7740,912,8.48684210526316,67.8947368421053,4.15142001553837,33.2113601243069,46.7886398756931,46.7886398756931,1,1,-1,0,-1,-1,-1,1,-1,-1,0,-0,-0,4,20,-1
1,212,1,../static/images/invador1.png,4,20,8,2.5,left,74,1,1120,0.759147163409702,0,0,-1,7820,922,8.48156182212581,67.8524945770065,5.6331711512824,45.0653692102592,-25.0653692102592,25.0653692102592,0,-1,-1,-1,1,-1,-1,-1,-1,1,1,1,-1,2,0,0
1,213,1,../static/images/invador1.png,4,20,8,2.5,left,74,1,907,-0.196588673331598,0,0,-1,7820,924,8.46320346320346,67.7056277056277,5.1815270303495,41.452216242796,-21.452216242796,21.452216242796,0,-1,-1,-1,-1,-1,1,-1,-1,-1,0,-0,-0,10,80,-1
1,214,1,../static/images/invador3.png,1,80,2,40,right,74,2,927,-0.106848219177485,0,0,-1,7820,926,8.44492440604752,16.889848812095,4.76609384753568,9.53218769507135,70.4678123049286,70.4678123049286,1,1,1,1,-1,-1,-1,-1,1,-1,0,-0,-0,2,0,-1
1,215,1,../static/images/invador2.png,2,20,2,10,left,70,2,1183,1.04182959399516,0,0,-1,7900,930,8.49462365591398,16.989247311828,6.8789797425932,13.7579594851864,6.2420405148136,6.2420405148136,1,-1,1,0,1,1,-1,-1,-1,-1,1,1,1,2,0,1
1,216,1,../static/images/invador1.png,4,20,8,2.5,right,70,1,825,-0.564524535363459,0,0,-1,7920,934,8.4796573875803,67.8372591006424,6.33483440928086,50.6786752742468,-30.6786752742468,30.6786752742468,0,-1,-1,-1,-1,1,1,1,-1,-1,1,-1,1,4,80,0
1,217,1,../static/images/invador1.png,4,20,8,2.5,right,70,1,801,-0.672213080348394,0,0,-1,7920,936,8.46153846153846,67.6923076923077,5.82693386069131,46.6154708855305,-26.6154708855305,26.6154708855305,0,-1,-1,-1,-1,-1,-1,1,1,1,0,-0,-0,4,20,-1
1,219,1,../static/images/invador3.png,1,80,2,40,right,74,2,1075,0.557231141562948,0,0,-1,8000,948,8.43881856540084,16.8776371308017,6.39624003518127,12.7924800703625,67.2075199296375,67.2075199296375,1,1,1,1,1,-1,-1,-1,-1,-1,1,1,-1,2,0,0
1,220,1,../static/images/invador1.png,4,20,8,2.5,right,70,1,811,-0.627342853271338,0,0,-1,8080,952,8.48739495798319,67.8991596638655,8.20176274781873,65.6141019825498,-45.6141019825498,45.6141019825498,0,-1,-1,-1,1,1,1,-1,-1,-1,1,1,1,10,80,1
1,221,1,../static/images/invador1.png,4,20,8,2.5,left,74,1,771,-0.806823761579563,0,0,-1,8080,954,8.46960167714885,67.7568134171908,7.54417968725514,60.3534374980411,-40.3534374980411,40.3534374980411,0,-1,-1,-1,-1,-1,1,1,1,-1,0,-0,-0,4,80,-1
1,222,1,../static/images/invador1.png,4,20,8,2.5,left,74,1,668,-1.26898710047324,0,0,-1,8080,956,8.45188284518829,67.6150627615063,6.93931888833648,55.5145511066918,-35.5145511066918,35.5145511066918,0,-1,-1,-1,-1,-1,-1,-1,1,1,0,-0,-0,2,0,-1
1,223,1,../static/images/invador2.png,2,20,2,10,left,70,2,1190,1.0732387529491,0,0,-1,8080,958,8.43423799582463,16.8684759916493,6.38295330045933,12.7659066009187,7.23409339908134,7.23409339908134,1,-1,1,0,-1,-1,-1,-1,-1,-1,0,-0,-0,2,0,-1
1,226,1,../static/images/invador1.png,4,20,8,2.5,left,74,1,764,-0.838232920533503,0,0,-1,8120,968,8.38842975206612,67.1074380165289,5.12036483028643,40.9629186422914,-20.9629186422914,20.9629186422914,0,-1,-1,-1,-1,-1,-1,1,-1,1,0,-0,-0,4,20,-1
1,227,1,../static/images/invador1.png,4,20,8,2.5,left,74,1,824,-0.569011558071165,0,0,-1,8120,970,8.37113402061856,66.9690721649485,4.70983537706646,37.6786830165317,-17.6786830165317,17.6786830165317,0,-1,-1,-1,-1,-1,-1,-1,-1,1,0,-0,-0,2,0,-1
1,228,1,../static/images/invador3.png,1,80,2,40,right,74,2,1253,1.35592118353455,0,0,-1,8120,972,8.35390946502058,16.7078189300412,4.33222045973351,8.66444091946702,71.335559080533,71.335559080533,1,1,1,1,-1,-1,-1,-1,-1,-1,0,-0,-0,2,0,-1
1,230,1,../static/images/invador1.png,4,20,8,2.5,left,74,1,837,-0.510680262870992,0,0,-1,8280,986,8.39756592292089,67.1805273833671,7.13330586594032,57.0664469275225,-37.0664469275225,37.0664469275225,0,-1,-1,-1,1,-1,1,1,-1,-1,1,1,-1,4,80,0
1,232,1,../static/images/invador1.png,4,20,8,2.5,left,74,1,723,-1.02220085154943,0,0,-1,8300,992,8.36693548387097,66.9354838709677,6.07712377937283,48.6169902349826,-28.6169902349826,28.6169902349826,0,-1,-1,-1,-1,1,-1,-1,1,-1,1,-1,1,2,0,0
1,234,1,../static/images/invador3.png,1,80,2,40,right,74,2,994,0.193782302238792,0,0,-1,8380,1004,8.34661354581673,16.6932270916335,6.54156865402028,13.0831373080406,66.9168626919594,66.9168626919594,1,1,1,1,1,-1,-1,-1,-1,1,1,1,-1,2,0,0
1,235,1,../static/images/invador1.png,4,20,8,2.5,right,70,1,791,-0.717083307425451,0,0,-1,8460,1008,8.39285714285714,67.1428571428571,8.3196897341406,66.5575178731248,-46.5575178731248,46.5575178731248,0,-1,-1,-1,1,1,1,-1,-1,-1,1,1,1,10,80,1
1,236,1,../static/images/invador1.png,4,20,8,2.5,right,70,1,955,0.0187884166382727,0,0,-1,8460,1010,8.37623762376238,67.009900990099,7.65265178065058,61.2212142452047,-41.2212142452047,41.2212142452047,0,-1,-1,-1,-1,-1,1,1,1,-1,0,-0,-0,4,80,-1
1,239,1,../static/images/invador3.png,1,80,2,40,left,70,2,695,-1.14783748736519,0,0,-1,8500,1032,8.23643410852713,16.4728682170543,4.03550848028472,8.07101696056945,71.9289830394305,71.9289830394305,1,1,1,1,-1,-1,-1,-1,-1,-1,1,-1,-1,10,20,-1
1,240,1,../static/images/invador2.png,2,20,2,10,right,74,2,911,-0.178640582500775,0,0,-1,8580,1036,8.28185328185328,16.5637065637066,6.2861458513814,12.5722917027628,7.42770829723719,7.42770829723719,1,-1,1,0,1,1,-1,-1,-1,-1,1,1,1,10,20,1
1,246,1,../static/images/invador1.png,4,20,8,2.5,right,70,1,788,-0.730544375548568,0,0,-1,8740,1082,8.07763401109057,64.6210720887246,3.26529883847889,26.1223907078311,-6.12239070783115,6.12239070783115,0,-1,-1,-1,-1,1,-1,-1,-1,-1,0,-0,0,10,20,0
1,247,1,../static/images/invador1.png,4,20,8,2.5,right,70,1,821,-0.582472626194282,0,0,-1,8740,1084,8.06273062730627,64.5018450184502,3.00350082384689,24.0280065907751,-4.0280065907751,4.0280065907751,0,-1,-1,-1,-1,-1,-1,1,-1,-1,0,-0,-0,2,0,-1
1,248,1,../static/images/invador1.png,4,20,8,2.5,left,74,1,916,-0.156205468962247,0,0,-1,8740,1086,8.04788213627993,64.3830570902394,2.7626926799298,22.1015414394384,-2.10154143943843,2.10154143943843,0,-1,-1,-1,-1,-1,-1,-1,-1,1,0,-0,-0,2,0,-1
1,249,1,../static/images/invador1.png,4,20,8,2.5,right,70,1,810,-0.631829875979044,0,0,-1,8740,1088,8.03308823529412,64.2647058823529,2.54119152661395,20.3295322129116,-0.329532212911584,0.329532212911584,0,-1,-1,-1,-1,-1,-1,-1,-1,-1,0,-0,-0,2,0,-1
1,250,1,../static/images/invador3.png,1,80,2,40,left,70,2,989,0.171347188700264,0,0,-1,8740,1090,8.01834862385321,16.0366972477064,2.3374494100801,4.6748988201602,75.3251011798398,75.3251011798398,1,1,1,1,-1,-1,-1,-1,-1,-1,0,-0,-0,2,0,-1
1,251,1,../static/images/invador4.png,3,80,8,10,right,74,2,926,-0.111335241885191,0,0,-1,8820,1094,8.06215722120658,64.4972577696526,4.9082549008895,39.266039207116,40.733960792884,40.733960792884,1,1,-1,0,1,1,-1,-1,-1,-1,1,1,1,2,0,1
1,252,1,../static/images/invador1.png,4,20,8,2.5,left,74,1,763,-0.842719943241208,0,0,-1,8900,1104,8.06159420289855,64.4927536231884,6.11111586309339,48.8889269047471,-28.8889269047471,28.8889269047471,0,-1,-1,-1,1,-1,1,1,-1,-1,1,1,-1,4,80,0
1,253,1,../static/images/invador1.png,4,20,8,2.5,right,70,1,863,-0.394017672470645,0,0,-1,8900,1106,8.04701627486438,64.376130198915,5.62115213257943,44.9692170606354,-24.9692170606354,24.9692170606354,0,-1,-1,-1,-1,-1,1,-1,1,1,0,-0,-0,10,80,-1
1,254,1,../static/images/invador1.png,4,20,8,2.5,right,70,1,839,-0.50170621745558,0,0,-1,8900,1108,8.03249097472924,64.2599277978339,5.17047164633662,41.3637731706929,-21.3637731706929,21.3637731706929,0,-1,-1,-1,-1,-1,-1,-1,1,-1,0,-0,-0,2,0,-1
1,255,1,../static/images/invador4.png,3,80,8,10,left,70,2,1314,1.62962956870459,0,0,-1,8900,1110,8.01801801801802,64.1441441441441,4.75592483801062,38.047398704085,41.952601295915,41.952601295915,1,1,-1,0,-1,-1,-1,-1,-1,-1,0,-0,-0,2,0,-1
1,256,1,../static/images/invador1.png,4,20,8,2.5,left,74,1,801,-0.672213080348394,0,0,-1,8980,1120,8.01785714285714,64.1428571428571,6.01491872761248,48.1193498208999,-28.1193498208999,28.1193498208999,0,-1,-1,-1,1,-1,-1,-1,-1,-1,1,1,-1,2,0,0
1,258,1,../static/images/invador3.png,1,80,2,40,left,70,2,1030,0.355315119716195,0,0,-1,9000,1126,7.99289520426288,15.9857904085258,5.24236875940423,10.4847375188085,69.5152624811915,69.5152624811915,1,1,1,1,-1,1,-1,-1,1,-1,1,-1,1,2,0,0
1,259,1,../static/images/invador4.png,3,80,8,10,left,70,2,1347,1.77770131805888,0,0,-1,9080,1130,8.03539823008849,64.283185840708,7.26545327730417,58.1236262184334,21.8763737815666,21.8763737815666,1,1,-1,0,1,1,-1,1,-1,-1,1,1,1,4,20,1
1,264,1,../static/images/invador3.png,1,80,2,40,left,70,2,1097,0.655945641132472,0,0,-1,9220,1166,7.9073756432247,15.8147512864494,3.72851037568385,7.4570207513677,72.5429792486323,72.5429792486323,1,1,1,1,-1,-1,-1,-1,-1,-1,1,-1,-1,2,0,-1
1,266,1,../static/images/invador3.png,1,80,2,40,left,70,2,1050,0.445055573870308,0,0,-1,9300,1172,7.93515358361775,15.8703071672355,5.553008071571,11.106016143142,68.893983856858,68.893983856858,1,1,1,1,-1,-1,1,1,-1,-1,0,-0,-0,4,80,-1
1,267,1,../static/images/invador1.png,4,20,8,2.5,right,70,1,791,-0.717083307425451,0,0,-1,9380,1176,7.97619047619048,63.8095238095238,7.51752171509418,60.1401737207534,-40.1401737207534,40.1401737207534,0,-1,-1,-1,1,1,-1,-1,1,1,1,1,1,2,0,1
1,268,1,../static/images/invador1.png,4,20,8,2.5,left,74,1,641,-1.3901367135813,0,0,-1,9380,1178,7.96264855687606,63.7011884550085,6.9147982409752,55.3183859278016,-35.3183859278016,35.3183859278016,0,-1,-1,-1,-1,-1,1,1,-1,-1,0,-0,-0,4,80,-1
1,270,1,../static/images/invador1.png,4,20,8,2.5,right,70,1,847,-0.465810035793935,0,0,-1,9400,1184,7.93918918918919,63.5135135135135,5.91403147386423,47.3122517909138,-27.3122517909138,27.3122517909138,0,-1,-1,-1,-1,1,-1,-1,-1,-1,1,-1,1,2,0,0
1,271,1,../static/images/invador1.png,4,20,8,2.5,left,74,1,702,-1.11642832841125,0,0,-1,9400,1186,7.92580101180438,63.4064080944351,5.43986914602961,43.5189531682368,-23.5189531682368,23.5189531682368,0,-1,-1,-1,-1,-1,-1,1,-1,-1,0,-0,-0,4,20,-1
1,272,1,../static/images/invador4.png,3,80,8,10,right,74,2,1207,1.14951813898009,0,0,-1,9400,1188,7.91245791245791,63.2996632996633,5.00372317203603,40.0297853762883,39.9702146237117,39.9702146237117,1,1,-1,0,-1,-1,-1,-1,-1,1,0,-0,-0,2,0,-1
1,273,1,../static/images/invador4.png,3,80,8,10,left,70,2,1276,1.45912270581178,0,0,-1,9480,1198,7.91318864774624,63.30550918197,6.17140451551069,49.3712361240855,30.6287638759145,30.6287638759145,1,1,-1,0,1,-1,-1,-1,-1,-1,1,1,-1,2,0,0
1,274,1,../static/images/invador1.png,4,20,8,2.5,left,74,1,844,-0.479271103917052,0,0,-1,9560,1208,7.91390728476821,63.3112582781457,6.90880065566764,55.2704052453411,-35.2704052453411,35.2704052453411,0,-1,-1,-1,1,-1,1,-1,-1,-1,1,1,-1,10,80,0
1,275,1,../static/images/invador1.png,4,20,8,2.5,left,74,1,654,-1.33180541838112,0,0,-1,9560,1210,7.90082644628099,63.2066115702479,6.35488189214502,50.8390551371601,-30.8390551371601,30.8390551371601,0,-1,-1,-1,-1,-1,1,-1,1,-1,0,-0,-0,10,80,-1
1,276,1,../static/images/invador1.png,4,20,8,2.5,left,74,1,649,-1.35424053191965,0,0,-1,9560,1212,7.88778877887789,63.1023102310231,5.84537402016125,46.76299216129,-26.76299216129,26.76299216129,0,-1,-1,-1,-1,-1,-1,-1,1,-1,0,-0,-0,2,0,-1
1,277,1,../static/images/invador3.png,1,80,2,40,right,74,2,1181,1.03285554857975,0,0,-1,9560,1214,7.87479406919275,15.7495881383855,5.37671636003339,10.7534327200668,69.2465672799332,69.2465672799332,1,1,1,1,-1,-1,-1,-1,-1,-1,0,-0,-0,2,0,-1
1,278,1,../static/images/invador2.png,2,20,2,10,left,70,2,1178,1.01939448045663,0,0,-1,9640,1218,7.91461412151067,15.8292282430213,7.37446971046331,14.7489394209266,5.25106057907339,5.25106057907339,1,-1,1,0,1,1,-1,-1,-1,-1,1,1,1,2,0,1
1,279,1,../static/images/invador1.png,4,20,8,2.5,left,74,1,775,-0.788875670748741,0,0,-1,9660,1222,7.9050736497545,63.240589198036,6.73690001157199,53.8952000925759,-33.8952000925759,33.8952000925759,0,-1,-1,-1,-1,1,1,1,-1,-1,1,-1,1,4,80,0
1,280,1,../static/images/invador1.png,4,20,8,2.5,right,70,1,796,-0.694648193886922,0,0,-1,9660,1224,7.8921568627451,63.1372549019608,6.19676352329103,49.5741081863282,-29.5741081863282,29.5741081863282,0,-1,-1,-1,-1,-1,-1,1,1,1,0,-0,-0,4,20,-1
1,281,1,../static/images/invador1.png,4,20,8,2.5,left,74,1,598,-1.58307869001264,0,0,-1,9660,1226,7.87928221859706,63.0342577487765,5.69993292131851,45.5994633705481,-25.5994633705481,25.5994633705481,0,-1,-1,-1,-1,-1,-1,-1,-1,1,0,-0,-0,2,0,-1
1,283,1,../static/images/invador3.png,1,80,2,40,left,70,2,1193,1.08669982107221,0,0,-1,9740,1238,7.86752827140549,15.735056542811,6.32246859304015,12.6449371860803,67.3550628139197,67.3550628139197,1,1,1,1,1,-1,-1,-1,-1,-1,1,1,-1,2,0,0
2,0,1,../static/images/invador2.png,1,80,2,40,left,70,2,1390,1.78207659425499,0,0,1,0,2,0,0,0.10721724601215,0.214434492024301,79.7855655079757,79.7855655079757,1,1,1,1,NaN,NaN,NaN,NaN,NaN,NaN,NaN,NaN,NaN,0,0,NaN
2,1,1,../static/images/invador3.png,3,80,8,10,left,70,2,1376,1.71338659719061,0,0,1,80,6,13.3333333333333,106.666666666667,1.07085053823621,8.5668043058897,71.4331956941103,71.4331956941103,1,1,-1,0,1,1,NaN,NaN,NaN,NaN,1,1,1,2,0,1
2,2,1,../static/images/invador1.png,4,20,8,2.5,right,74,2,1372,1.69376088374365,0,0,1,160,16,10,80,1.07084744745664,8.56677957965314,11.4332204203469,11.4332204203469,1,-1,-1,-1,1,-1,1,1,NaN,NaN,1,1,-1,4,80,0
2,3,1,../static/images/invador1.png,4,20,8,2.5,left,74,1,1348,1.57600660306187,0,0,1,180,26,6.92307692307692,55.3846153846154,0.267711861946649,2.14169489557319,17.8583051044268,17.8583051044268,0,-1,-1,-1,-1,-1,1,-1,1,1,1,-1,-1,10,80,-1
2,4,1,../static/images/invador1.png,4,20,8,2.5,left,74,1,1272,1.20311804756956,0,0,1,180,28,6.42857142857143,51.4285714285714,0.00408879324255052,0.0327103459404041,19.9672896540596,19.9672896540596,0,-1,-1,-1,-1,-1,-1,-1,1,-1,0,-0,-0,10,20,-1
2,6,1,../static/images/invador4.png,2,20,2,10,left,74,1,22,-4.92991740460653,0,0,1,180,32,5.625,11.25,9.53784414282582e-07,1.90756882856516e-06,19.9999980924312,19.9999980924312,0,-1,1,0,-1,-1,-1,-1,-1,-1,0,-0,-0,2,0,-1
2,7,1,../static/images/invador1.png,4,20,8,2.5,right,74,2,1406,1.86057944804284,0,0,1,180,34,5.29411764705882,42.3529411764706,1.45672561522351e-08,1.16538049217881e-07,19.9999998834619,19.9999998834619,1,-1,-1,-1,-1,1,-1,-1,-1,-1,0,-0,0,2,0,0
2,8,1,../static/images/invador3.png,3,80,8,10,right,74,2,1432,1.9881465854481,0,0,1,200,44,4.54545454545455,36.3636363636364,0.267711861836665,2.14169489469332,77.8583051053067,77.8583051053067,1,1,-1,0,-1,-1,-1,1,-1,-1,1,-1,-1,2,0,-1
2,10,1,../static/images/invador4.png,2,20,2,10,left,70,2,1330,1.48769089255053,0,0,1,300,64,4.6875,9.375,0.267711861946649,0.535423723893297,19.4645762761067,19.4645762761067,1,-1,1,0,-1,-1,1,-1,-1,-1,1,-1,-1,10,80,-1
2,11,1,../static/images/invador2.png,1,80,2,40,left,70,2,1478,2.21384229008818,0,0,1,320,68,4.70588235294118,9.41176470588235,0.267719579511089,0.535439159022178,79.4645608409778,79.4645608409778,1,1,1,1,-1,1,-1,-1,1,-1,1,-1,1,10,20,0
2,12,1,../static/images/invador1.png,4,20,8,2.5,right,70,1,1460,2.12552657957685,0,0,1,400,72,5.55555555555556,44.4444444444444,1.07085516524357,8.56684132194854,11.4331586780515,11.4331586780515,0,-1,-1,-1,1,1,-1,1,-1,-1,1,1,1,4,20,1
2,14,1,../static/images/invador1.png,4,20,8,2.5,left,74,1,1194,0.820416635353773,0,0,1,420,84,5,40,0.267711861838345,2.14169489470676,17.8583051052932,17.8583051052932,0,-1,-1,-1,-1,-1,-1,-1,1,1,1,-1,-1,2,0,-1
2,15,1,../static/images/invador1.png,4,20,8,2.5,right,70,1,1082,0.270896658838795,0,0,1,420,86,4.88372093023256,39.0697674418605,0.00408879324089638,0.032710345927171,19.9672896540728,19.9672896540728,0,-1,-1,-1,-1,-1,-1,-1,-1,-1,0,-0,-0,10,20,-1
2,16,1,../static/images/invador4.png,2,20,2,10,left,70,2,1332,1.49750374927401,0,0,1,420,88,4.77272727272727,9.54545454545454,6.24485969803425e-05,0.000124897193960685,19.999875102806,19.999875102806,1,-1,1,0,-1,-1,-1,-1,-1,-1,0,-0,-0,2,0,-1
2,17,1,../static/images/invador1.png,4,20,8,2.5,right,70,1,1178,0.741913781565919,0,0,1,440,92,4.78260869565217,38.2608695652174,0.267711863636951,2.14169490909561,17.8583050909044,17.8583050909044,0,-1,-1,-1,-1,1,-1,-1,-1,-1,1,-1,1,2,0,0
2,18,1,../static/images/invador3.png,3,80,8,10,right,74,2,1246,1.0755509101643,0,0,1,440,94,4.68085106382979,37.4468085106383,0.00408879326836669,0.0327103461469335,79.9672896538531,79.9672896538531,1,1,-1,0,-1,-1,-1,1,-1,-1,0,-0,-0,4,20,-1
2,19,1,../static/images/invador2.png,1,80,2,40,left,74,1,1618,2.90074226073191,0,0,1,520,104,5,10,1.07084744734708,2.14169489469416,77.8583051053058,77.8583051053058,0,1,1,1,1,-1,-1,-1,-1,1,1,1,-1,2,0,0
2,20,1,../static/images/invador1.png,4,20,8,2.5,right,70,1,1270,1.19330519084608,0,0,1,520,106,4.90566037735849,39.2452830188679,0.0163551729634893,0.130841383707914,19.8691586162921,19.8691586162921,0,-1,-1,-1,1,1,1,-1,-1,-1,0,0,0,10,80,1
2,21,1,../static/images/invador1.png,4,20,8,2.5,left,74,1,1000,-0.131430466823957,0,0,1,520,108,4.81481481481481,38.5185185185185,0.0002497943879199,0.0019983551033592,19.9980016448966,19.9980016448966,0,-1,-1,-1,-1,-1,1,1,1,-1,0,-0,-0,2,0,-1
2,22,1,../static/images/invador1.png,4,20,8,2.5,left,74,1,1162,0.663410927778065,0,0,1,520,110,4.72727272727273,37.8181818181818,3.81513765556445e-06,3.05211012445156e-05,19.9999694788988,19.9999694788988,0,-1,-1,-1,-1,-1,-1,-1,1,1,0,-0,-0,2,0,-1
2,23,1,../static/images/invador2.png,1,80,2,40,right,70,1,1770,3.64651937171652,0,0,1,520,112,4.64285714285714,9.28571428571429,5.82690245850245e-08,1.16538049170049e-07,79.999999883462,79.999999883462,0,1,1,1,-1,-1,-1,-1,-1,-1,0,-0,-0,2,0,-1
2,25,1,../static/images/invador1.png,4,20,8,2.5,right,70,1,1390,1.78207659425499,0,0,1,520,116,4.48275862068965,35.8620689655172,1.35922958652655e-11,1.08738366922124e-10,19.9999999998913,19.9999999998913,0,-1,-1,-1,1,-1,1,1,-1,-1,0,0,-0,2,0,0
2,26,1,../static/images/invador4.png,2,20,2,10,left,74,1,1364,1.65450945684972,0,0,1,520,118,4.40677966101695,8.8135593220339,2.07596656646169e-13,4.15193313292338e-13,19.9999999999996,19.9999999999996,0,-1,1,0,-1,-1,1,-1,1,1,0,-0,-0,2,0,-1
2,27,1,../static/images/invador1.png,4,20,8,2.5,left,74,1,1172,0.712475211395474,0,0,1,520,120,4.33333333333333,34.6666666666667,3.17064698104447e-15,2.53651758483558e-14,20,20,0,-1,-1,-1,-1,1,-1,-1,1,-1,0,-0,0,2,0,0
2,28,1,../static/images/invador4.png,2,20,2,10,right,70,1,1282,1.25218233118697,0,0,1,520,122,4.26229508196721,8.52459016393443,4.84256463510437e-17,9.68512927020874e-17,20,20,0,-1,1,0,-1,-1,-1,1,-1,-1,0,-0,-0,2,0,-1
2,29,1,../static/images/invador1.png,4,20,8,2.5,left,74,1,1052,0.123703807986569,0,0,1,520,124,4.19354838709677,33.5483870967742,7.3961031882012e-19,5.91688255056096e-18,20,20,0,-1,-1,-1,-1,1,-1,-1,-1,1,0,-0,0,2,0,0
2,32,1,../static/images/invador2.png,1,80,2,40,right,70,1,1494,2.29234514387604,0,0,1,600,138,4.34782608695652,8.69565217391304,0.0163551729634829,0.0327103459269658,79.967289654073,79.967289654073,0,1,1,1,-1,-1,1,-1,-1,-1,0,-0,-0,10,80,-1
2,33,1,../static/images/invador1.png,4,20,8,2.5,right,70,1,1168,0.692849497948511,0,0,1,600,140,4.28571428571429,34.2857142857143,0.000249794387919802,0.00199835510335842,19.9980016448966,19.9980016448966,0,-1,-1,-1,1,1,-1,-1,1,-1,0,0,0,2,0,1
2,35,1,../static/images/invador1.png,4,20,8,2.5,right,70,1,962,-0.31787474457011,0,0,1,620,152,4.07894736842105,32.6315789473684,0.267711861836665,2.14169489469332,17.8583051053067,17.8583051053067,0,-1,-1,-1,-1,-1,-1,-1,1,1,1,-1,-1,2,0,-1
2,36,1,../static/images/invador4.png,2,20,2,10,right,70,1,1198,0.840042348800737,0,0,1,620,154,4.02597402597403,8.05194805194805,0.00408879324087073,0.00817758648174145,19.9918224135183,19.9918224135183,0,-1,1,0,-1,-1,-1,-1,-1,-1,0,-0,-0,10,20,-1
2,37,1,../static/images/invador1.png,4,20,8,2.5,left,74,1,1006,-0.101991896653511,0,0,1,620,156,3.97435897435897,31.7948717948718,6.24485969799507e-05,0.000499588775839606,19.9995004112242,19.9995004112242,0,-1,-1,-1,-1,1,-1,-1,-1,-1,0,-0,0,2,0,0
2,39,1,../static/images/invador3.png,3,80,8,10,right,74,2,1442,2.03721086906551,0,0,1,640,168,3.80952380952381,30.4761904761905,0.267711861836665,2.14169489469332,77.8583051053067,77.8583051053067,1,1,-1,0,-1,-1,-1,-1,-1,1,1,-1,-1,2,0,-1
2,40,1,../static/images/invador1.png,4,20,8,2.5,right,70,1,1112,0.418089509691022,0,0,1,720,178,4.04494382022472,32.3595505617978,1.07084744737415,8.56677957899324,11.4332204210068,11.4332204210068,0,-1,-1,-1,1,-1,-1,-1,-1,-1,1,1,-1,10,20,0
2,41,1,../static/images/invador2.png,1,80,2,40,left,70,2,1444,2.04702372578899,0,0,1,720,180,4,8,0.0163551729639028,0.0327103459278057,79.9672896540722,79.9672896540722,1,1,1,1,-1,-1,1,-1,-1,-1,0,-0,-0,10,80,-1
2,42,1,../static/images/invador1.png,4,20,8,2.5,left,74,1,944,-0.406190455081446,0,0,1,800,184,4.34782608695652,34.7826086956522,1.07084791883828,8.56678335070625,11.4332166492938,11.4332166492938,0,-1,-1,-1,1,1,-1,-1,1,-1,1,1,1,2,0,1
2,43,1,../static/images/invador1.png,4,20,8,2.5,left,74,1,1112,0.418089509691022,0,0,1,800,186,4.3010752688172,34.4086021505376,0.0163551801646272,0.130841441317018,19.869158558683,19.869158558683,0,-1,-1,-1,-1,-1,1,1,-1,-1,0,-0,-0,4,80,-1
2,45,1,../static/images/invador3.png,3,80,8,10,left,70,2,1096,0.339586655903168,0,0,1,800,190,4.21052631578947,33.6842105263158,3.81513933535913e-06,3.0521114682873e-05,79.9999694788853,79.9999694788853,1,1,-1,0,-1,1,-1,-1,-1,-1,0,-0,0,2,0,0
2,46,1,../static/images/invador1.png,4,20,8,2.5,left,74,1,946,-0.396377598357964,0,0,1,880,200,4.4,35.2,1.07084744734666,8.56677957877327,11.4332204212267,11.4332204212267,0,-1,-1,-1,1,-1,-1,1,-1,-1,1,1,-1,2,0,0
2,48,1,../static/images/invador1.png,4,20,8,2.5,left,74,1,892,-0.661324729891971,0,0,1,880,204,4.31372549019608,34.5098039215686,0.000249794387919803,0.00199835510335842,19.9980016448966,19.9980016448966,0,-1,-1,-1,1,1,-1,-1,1,-1,0,0,0,2,0,1
2,50,1,../static/images/invador1.png,4,20,8,2.5,left,74,1,896,-0.641699016445008,0,0,1,960,216,4.44444444444444,35.5555555555556,1.07084744734666,8.56677957877327,11.4332204212267,11.4332204212267,0,-1,-1,-1,1,-1,-1,-1,1,1,1,1,-1,2,0,0
2,52,1,../static/images/invador1.png,4,20,8,2.5,right,70,1,1128,0.496592363478876,0,0,1,980,222,4.41441441441441,35.3153153153153,0.267712333328287,2.1416986666263,17.8583013333737,17.8583013333737,0,-1,-1,-1,-1,1,-1,-1,1,-1,1,-1,1,2,0,0
2,53,1,../static/images/invador2.png,1,80,2,40,left,70,2,1108,0.398463796244058,0,0,1,980,224,4.375,8.75,0.00408880044201506,0.00817760088403012,79.991822399116,79.991822399116,1,1,1,1,-1,-1,-1,1,-1,-1,0,-0,-0,4,20,-1
2,54,1,../static/images/invador1.png,4,20,8,2.5,right,70,1,994,-0.160869036994402,0,0,1,1060,228,4.64912280701754,37.1929824561403,1.07084756521977,8.56678052175817,11.4332194782418,11.4332194782418,0,-1,-1,-1,1,1,-1,-1,-1,1,1,1,1,2,0,1
2,55,1,../static/images/invador1.png,4,20,8,2.5,right,70,1,924,-0.504319022316263,0,0,1,1060,230,4.60869565217391,36.8695652173913,0.0163551747637721,0.130841398110177,19.8691586018898,19.8691586018898,0,-1,-1,-1,-1,-1,1,1,-1,-1,0,-0,-0,4,80,-1
2,56,1,../static/images/invador4.png,2,20,2,10,right,70,1,1394,1.80170230770195,0,0,1,1060,232,4.56896551724138,9.13793103448276,0.000249794415415822,0.000499588830831644,19.9995004111692,19.9995004111692,0,-1,1,0,-1,-1,-1,-1,1,1,0,-0,-0,2,0,-1
2,57,1,../static/images/invador1.png,4,20,8,2.5,right,70,1,1198,0.840042348800737,0,0,1,1060,234,4.52991452991453,36.2393162393162,3.81513807551274e-06,3.05211046041019e-05,19.9999694788954,19.9999694788954,0,-1,-1,-1,-1,1,-1,-1,-1,-1,0,-0,0,2,0,0
2,58,1,../static/images/invador3.png,3,80,8,10,right,74,2,1288,1.28162090135742,0,0,1,1060,236,4.49152542372881,35.9322033898305,5.82690309989417e-08,4.66152247991534e-07,79.9999995338478,79.9999995338478,1,1,-1,0,-1,-1,-1,1,-1,-1,0,-0,-0,2,0,-1
2,59,1,../static/images/invador1.png,4,20,8,2.5,right,70,1,988,-0.190307607164847,0,0,1,1140,246,4.63414634146341,37.0731707317073,1.07084744734666,8.56677957877327,11.4332204212267,11.4332204212267,0,-1,-1,-1,1,-1,-1,-1,-1,1,1,1,-1,2,0,0
2,60,1,../static/images/invador2.png,1,80,2,40,right,74,2,1228,0.987235199652963,0,0,1,1140,248,4.59677419354839,9.19354838709677,0.0163551729634829,0.0327103459269658,79.967289654073,79.967289654073,1,1,1,1,-1,-1,1,-1,-1,-1,0,-0,-0,10,80,-1
2,61,1,../static/images/invador1.png,4,20,8,2.5,right,70,1,916,-0.54357044921019,0,0,1,1220,252,4.84126984126984,38.7301587301587,1.07084791883828,8.56678335070625,11.4332166492938,11.4332166492938,0,-1,-1,-1,1,1,-1,-1,1,-1,1,1,1,2,0,1
2,62,1,../static/images/invador1.png,4,20,8,2.5,left,74,1,1006,-0.101991896653511,0,0,1,1220,254,4.80314960629921,38.4251968503937,0.0163551801646272,0.130841441317018,19.869158558683,19.869158558683,0,-1,-1,-1,-1,-1,1,1,-1,-1,0,-0,-0,4,80,-1
2,64,1,../static/images/invador1.png,4,20,8,2.5,right,70,1,912,-0.563196162657154,0,0,1,1300,260,5,40,1.07084745454781,8.56677963638245,11.4332203636176,11.4332203636176,0,-1,-1,-1,1,1,-1,-1,-1,-1,1,1,1,2,0,1
2,65,1,../static/images/invador1.png,4,20,8,2.5,left,74,1,938,-0.435629025251891,0,0,1,1300,262,4.9618320610687,39.6946564885496,0.0163551730734668,0.130841384587735,19.8691586154123,19.8691586154123,0,-1,-1,-1,-1,-1,1,1,-1,-1,0,-0,-0,4,80,-1
2,66,1,../static/images/invador4.png,2,20,2,10,left,74,1,1158,0.643785214331102,0,0,1,1300,264,4.92424242424242,9.84848484848485,0.000249794389599599,0.000499588779199199,19.9995004112208,19.9995004112208,0,-1,1,0,-1,-1,-1,-1,1,1,0,-0,-0,2,0,-1
2,67,1,../static/images/invador1.png,4,20,8,2.5,left,74,1,1124,0.476966650031912,0,0,1,1300,266,4.88721804511278,39.0977443609023,3.81513768121868e-06,3.05211014497495e-05,19.9999694788985,19.9999694788985,0,-1,-1,-1,-1,1,-1,-1,-1,-1,0,-0,0,2,0,0
2,68,1,../static/images/invador3.png,3,80,8,10,left,70,2,1006,-0.101991896653511,0,0,1,1300,268,4.85074626865672,38.8059701492537,5.82690249768445e-08,4.66152199814756e-07,79.9999995338478,79.9999995338478,1,1,-1,0,-1,-1,-1,1,-1,-1,0,-0,-0,2,0,-1
2,69,1,../static/images/invador1.png,4,20,8,2.5,right,70,1,940,-0.425816168528409,0,0,1,1380,278,4.96402877697842,39.7122302158273,1.07084744734666,8.56677957877327,11.4332204212267,11.4332204212267,0,-1,-1,-1,1,-1,-1,-1,-1,1,1,1,-1,2,0,0
2,70,1,../static/images/invador1.png,4,20,8,2.5,left,74,1,904,-0.602447589551081,0,0,1,1380,280,4.92857142857143,39.4285714285714,0.0163551729634829,0.130841383707863,19.8691586162921,19.8691586162921,0,-1,-1,-1,-1,-1,1,-1,-1,-1,0,-0,-0,10,80,-1
2,72,1,../static/images/invador1.png,4,20,8,2.5,right,70,1,1070,0.212019518497905,0,0,1,1380,284,4.85915492957746,38.8732394366197,3.81513765556296e-06,3.05211012445037e-05,19.9999694788988,19.9999694788988,0,-1,-1,-1,-1,1,-1,-1,-1,-1,0,-0,0,2,0,0
2,73,1,../static/images/invador1.png,4,20,8,2.5,left,74,1,940,-0.425816168528409,0,0,1,1380,286,4.82517482517482,38.6013986013986,5.82690245850017e-08,4.66152196680014e-07,19.9999995338478,19.9999995338478,0,-1,-1,-1,-1,-1,-1,1,-1,-1,0,-0,-0,2,0,-1
2,76,1,../static/images/invador2.png,1,80,2,40,left,70,2,1038,0.0550138109221967,0,0,1,1460,300,4.86666666666667,9.73333333333333,0.0163551729634829,0.0327103459269658,79.967289654073,79.967289654073,1,1,1,1,-1,-1,1,-1,-1,-1,0,-0,-0,10,80,-1
2,79,1,../static/images/invador1.png,4,20,8,2.5,left,74,1,928,-0.4846933088693,0,0,1,1560,316,4.93670886075949,39.4936708860759,0.267711861838345,2.14169489470676,17.8583051052932,17.8583051052932,0,-1,-1,-1,-1,-1,-1,-1,1,1,1,-1,-1,2,0,-1
2,80,1,../static/images/invador1.png,4,20,8,2.5,right,70,1,792,-1.15196756606606,0,0,1,1560,318,4.90566037735849,39.2452830188679,0.00408879324089638,0.032710345927171,19.9672896540728,19.9672896540728,0,-1,-1,-1,-1,-1,-1,-1,-1,-1,0,-0,-0,10,20,-1
2,81,1,../static/images/invador3.png,3,80,8,10,right,74,2,1030,0.0157623840282697,0,0,1,1560,320,4.875,39,6.24485969803425e-05,0.00049958877584274,79.9995004112242,79.9995004112242,1,1,-1,0,-1,-1,-1,-1,-1,-1,0,-0,-0,2,0,-1
2,82,1,../static/images/invador4.png,2,20,2,10,right,70,1,1112,0.418089509691022,0,0,1,1640,330,4.96969696969697,9.93939393939394,1.07084744734667,2.14169489469333,17.8583051053067,17.8583051053067,0,-1,1,0,1,-1,-1,-1,-1,-1,1,1,-1,2,0,0
2,83,1,../static/images/invador2.png,1,80,2,40,right,74,2,1112,0.418089509691022,0,0,1,1640,332,4.93975903614458,9.87951807228916,0.016355172963483,0.032710345926966,79.967289654073,79.967289654073,1,1,1,1,-1,1,1,-1,-1,-1,0,-0,0,10,80,0
2,84,1,../static/images/invador1.png,4,20,8,2.5,left,74,1,912,-0.563196162657154,0,0,1,1720,336,5.11904761904762,40.9523809523809,1.07084791883828,8.56678335070625,11.4332166492938,11.4332166492938,0,-1,-1,-1,1,1,-1,1,1,-1,1,1,1,2,0,1
2,86,1,../static/images/invador4.png,2,20,2,10,left,74,1,1066,0.192393805050941,0,0,1,1740,348,5,10,0.267711861838345,0.535423723676689,19.4645762763233,19.4645762763233,0,-1,1,0,-1,-1,-1,-1,1,1,1,-1,-1,2,0,-1
2,87,1,../static/images/invador2.png,1,80,2,40,left,70,2,1110,0.40827665296754,0,0,1,1740,350,4.97142857142857,9.94285714285714,0.00408879324089638,0.00817758648179275,79.9918224135182,79.9918224135182,1,1,1,1,-1,1,-1,-1,-1,-1,0,-0,0,10,20,0
2,88,1,../static/images/invador1.png,4,20,8,2.5,right,70,1,998,-0.141243323547438,0,0,1,1820,354,5.14124293785311,41.1299435028249,1.07084756521956,8.56678052175651,11.4332194782435,11.4332194782435,0,-1,-1,-1,1,1,-1,1,-1,-1,1,1,1,2,0,1
2,89,1,../static/images/invador3.png,3,80,8,10,left,70,2,1020,-0.0333018995891391,0,0,1,1820,356,5.1123595505618,40.8988764044944,0.016355174763769,0.130841398110152,79.8691586018899,79.8691586018899,1,1,-1,0,-1,-1,1,1,-1,1,0,-0,-0,4,80,-1
2,92,1,../static/images/invador2.png,1,80,2,40,left,70,2,1142,0.565282360543248,0,0,1,1920,378,5.07936507936508,10.1587301587302,0.00408879324255052,0.00817758648510103,79.9918224135149,79.9918224135149,1,1,1,1,-1,-1,-1,-1,1,-1,0,-0,-0,10,20,-1
2,94,1,../static/images/invador1.png,4,20,8,2.5,right,70,1,1156,0.63397235760762,0,0,1,2000,384,5.20833333333333,41.6666666666667,0.016355174763769,0.130841398110152,19.8691586018898,19.8691586018898,0,-1,-1,-1,-1,-1,1,1,-1,-1,0,-0,-0,4,80,-1
2,99,1,../static/images/invador1.png,4,20,8,2.5,left,74,1,882,-0.71038901350938,0,0,1,2020,402,5.02487562189055,40.1990049751244,0.267711861836665,2.14169489469332,17.8583051053067,17.8583051053067,0,-1,-1,-1,-1,-1,1,-1,-1,1,1,-1,-1,2,0,-1
2,100,1,../static/images/invador2.png,1,80,2,40,right,74,2,978,-0.239371890782256,0,0,1,2020,404,5,10,0.00408879324087072,0.00817758648174144,79.9918224135183,79.9918224135183,1,1,1,1,-1,-1,-1,-1,1,-1,0,-0,-0,10,20,-1
2,101,1,../static/images/invador1.png,4,20,8,2.5,right,70,1,924,-0.504319022316263,0,0,1,2100,408,5.14705882352941,41.1764705882353,1.07084756521956,8.56678052175651,11.4332194782435,11.4332194782435,0,-1,-1,-1,1,1,-1,-1,-1,-1,1,1,1,2,0,1
2,103,1,../static/images/invador3.png,3,80,8,10,left,70,2,894,-0.651511873168489,0,0,1,2100,412,5.09708737864078,40.7766990291262,0.000249794415415773,0.00199835532332619,79.9980016446767,79.9980016446767,1,1,-1,0,-1,-1,-1,-1,1,1,0,-0,-0,2,0,-1
2,104,1,../static/images/invador4.png,2,20,2,10,right,70,1,1040,0.0648266676456784,0,0,1,2180,422,5.16587677725119,10.3317535545024,1.07084744734668,2.14169489469337,17.8583051053066,17.8583051053066,0,-1,1,0,1,-1,-1,-1,-1,-1,1,1,-1,2,0,0
2,105,1,../static/images/invador1.png,4,20,8,2.5,left,74,1,866,-0.788891867297234,0,0,1,2180,424,5.14150943396226,41.1320754716981,0.0163551729634833,0.130841383707866,19.8691586162921,19.8691586162921,0,-1,-1,-1,-1,1,1,-1,-1,-1,0,-0,0,10,80,0
2,106,1,../static/images/invador2.png,1,80,2,40,right,74,2,1126,0.486779506755394,0,0,1,2180,426,5.11737089201878,10.2347417840376,0.000249794387919808,0.000499588775839617,79.9995004112242,79.9995004112242,1,1,1,1,-1,-1,-1,1,1,-1,0,-0,-0,2,0,-1
2,107,1,../static/images/invador1.png,4,20,8,2.5,right,70,1,956,-0.347313314740555,0,0,1,2260,430,5.25581395348837,42.046511627907,1.0708474545478,8.56677963638242,11.4332203636176,11.4332203636176,0,-1,-1,-1,1,1,-1,-1,-1,1,1,1,1,2,0,1
2,108,1,../static/images/invador3.png,3,80,8,10,left,70,2,930,-0.474880452145818,0,0,1,2260,432,5.23148148148148,41.8518518518519,0.0163551730734668,0.130841384587734,79.8691586154123,79.8691586154123,1,1,-1,0,-1,-1,1,1,-1,-1,0,-0,-0,4,80,-1
2,109,1,../static/images/invador1.png,4,20,8,2.5,left,74,1,930,-0.474880452145818,0,0,1,2340,442,5.29411764705882,42.3529411764706,1.07084744734834,8.56677957878671,11.4332204212133,11.4332204212133,0,-1,-1,-1,1,-1,-1,-1,1,1,1,1,-1,2,0,0
2,111,1,../static/images/invador1.png,4,20,8,2.5,right,70,1,990,-0.180494750441365,0,0,1,2340,446,5.24663677130045,41.9730941704036,0.000249794387920194,0.00199835510336155,19.9980016448966,19.9980016448966,0,-1,-1,-1,-1,1,-1,-1,1,-1,0,-0,0,2,0,0
2,113,1,../static/images/invador3.png,3,80,8,10,left,70,2,1000,-0.131430466823957,0,0,1,2360,458,5.1528384279476,41.2227074235808,0.267711861836665,2.14169489469332,77.8583051053067,77.8583051053067,1,1,-1,0,-1,-1,-1,-1,-1,1,1,-1,-1,2,0,-1
2,115,1,../static/images/invador4.png,2,20,2,10,left,74,1,1112,0.418089509691022,0,0,1,2460,478,5.14644351464435,10.2928870292887,0.267711861946649,0.535423723893297,19.4645762761067,19.4645762761067,0,-1,1,0,-1,-1,1,-1,-1,-1,1,-1,-1,10,80,-1
2,117,1,../static/images/invador1.png,4,20,8,2.5,right,70,1,998,-0.141243323547438,0,0,1,2460,482,5.10373443983402,40.8298755186722,6.24485970056063e-05,0.000499588776044851,19.999500411224,19.999500411224,0,-1,-1,-1,1,1,-1,1,-1,-1,0,0,0,2,0,1
2,118,1,../static/images/invador1.png,4,20,8,2.5,right,70,1,854,-0.847769007638125,0,0,1,2460,484,5.08264462809917,40.6611570247934,9.53784414282582e-07,7.63027531426066e-06,19.9999923697247,19.9999923697247,0,-1,-1,-1,-1,-1,1,1,-1,1,0,-0,-0,2,0,-1
2,119,1,../static/images/invador1.png,4,20,8,2.5,right,70,1,1190,0.80079092190681,0,0,1,2460,486,5.06172839506173,40.4938271604938,1.45672561522351e-08,1.16538049217881e-07,19.9999998834619,19.9999998834619,0,-1,-1,-1,-1,-1,-1,-1,1,1,0,-0,-0,2,0,-1
2,121,1,../static/images/invador1.png,4,20,8,2.5,left,74,1,1058,0.153142378157014,0,0,1,2540,492,5.16260162601626,41.3008130081301,1.07084744734667,8.56677957877332,11.4332204212267,11.4332204212267,0,-1,-1,-1,1,1,-1,-1,-1,-1,1,1,1,2,0,1
2,122,1,../static/images/invador1.png,4,20,8,2.5,right,70,1,844,-0.896833291255533,0,0,1,2540,494,5.1417004048583,41.1336032388664,0.016355172963483,0.130841383707864,19.8691586162921,19.8691586162921,0,-1,-1,-1,-1,-1,1,1,-1,-1,0,-0,-0,4,80,-1
2,158,-1,../static/images/invador1.png,4,20,8,2.5,left,70,2,1272,1.20311804756956,0,0,1,2840,662,4.29003021148036,34.3202416918429,0.267711861864161,2.14169489491329,17.8583051050867,17.8583051050867,1,-1,-1,-1,-1,-1,-1,-1,-1,-1,1,-1,-1,10,20,-1
2,159,-1,../static/images/invador2.png,1,80,2,40,left,70,2,1356,1.6152580299558,0,0,1,2860,672,4.25595238095238,8.51190476190476,0.267711861864161,0.535423723728321,79.4645762762717,79.4645762762717,1,1,1,1,-1,-1,-1,-1,-1,-1,1,-1,-1,10,20,-1
2,160,-1,../static/images/invador4.png,2,20,2,10,left,74,1,1300,1.34049804169831,0,0,1,2940,676,4.3491124260355,8.69822485207101,1.07085516502108,2.14171033004216,17.8582896699578,17.8582896699578,0,-1,1,0,1,1,-1,-1,-1,-1,1,1,1,10,20,1
2,162,-1,../static/images/invador1.png,4,20,8,2.5,right,70,1,1196,0.830229492077255,0,0,1,2940,680,4.32352941176471,34.5882352941176,0.000249796188205887,0.0019983695056471,19.9980016304944,19.9980016304944,0,-1,-1,-1,1,1,-1,1,1,1,0,0,0,2,0,1
2,163,-1,../static/images/invador2.png,1,80,2,40,right,74,2,1314,1.40918803876268,0,0,1,2940,682,4.3108504398827,8.6217008797654,3.81516515153391e-06,7.63033030306781e-06,79.9999923696697,79.9999923696697,1,1,1,1,-1,-1,1,1,-1,1,0,-0,-0,2,0,-1
2,164,-1,../static/images/invador2.png,1,80,2,40,right,74,2,1244,1.06573805344082,0,0,1,3020,686,4.40233236151604,8.80466472303207,1.07084744745664,2.14169489491329,77.8583051050867,77.8583051050867,1,1,1,1,1,1,-1,-1,1,1,1,1,1,2,0,1
2,165,-1,../static/images/invador2.png,1,80,2,40,right,74,2,1452,2.08627515268292,0,0,1,3100,690,4.49275362318841,8.98550724637681,1.07087831804435,2.14175663608869,77.8582433639113,77.8582433639113,1,1,1,1,1,1,1,1,-1,-1,1,1,1,4,80,1
2,166,-1,../static/images/invador3.png,3,80,8,10,right,74,2,1020,-0.0333018995891391,0,0,1,3180,694,4.5821325648415,36.657060518732,1.07087831893429,8.56702655147434,71.4329734485257,71.4329734485257,1,1,-1,0,1,1,1,1,1,1,1,1,1,4,80,1
2,169,-1,../static/images/invador1.png,4,20,8,2.5,left,74,1,1124,0.476966650031912,0,0,1,3260,708,4.6045197740113,36.8361581920904,0.000249794387945459,0.00199835510356367,19.9980016448964,19.9980016448964,0,-1,-1,-1,-1,1,-1,1,1,-1,0,-0,0,2,0,0
2,170,-1,../static/images/invador2.png,1,80,2,40,right,74,2,1110,0.40827665296754,0,0,1,3260,710,4.59154929577465,9.1830985915493,3.81513765595481e-06,7.63027531190962e-06,79.9999923697247,79.9999923697247,1,1,1,1,-1,-1,-1,1,-1,1,0,-0,-0,2,0,-1
2,171,-1,../static/images/invador3.png,3,80,8,10,left,70,2,1000,-0.131430466823957,0,0,1,3340,714,4.67787114845938,37.4229691876751,1.07084744745664,8.56677957965314,71.4332204203469,71.4332204203469,1,1,-1,0,1,1,-1,-1,-1,1,1,1,1,2,0,1
2,172,-1,../static/images/invador2.png,1,80,2,40,right,74,2,1234,1.01667376982341,0,0,1,3420,724,4.72375690607735,9.4475138121547,1.07084744745664,2.14169489491329,77.8583051050867,77.8583051050867,1,1,1,1,1,-1,1,1,-1,-1,1,1,-1,4,80,0
2,173,-1,../static/images/invador2.png,1,80,2,40,right,74,2,970,-0.278623317676183,0,0,1,3500,728,4.80769230769231,9.61538461538461,1.07087831804435,2.14175663608869,77.8582433639113,77.8582433639113,1,1,1,1,1,1,1,-1,1,1,1,1,1,10,80,1
2,175,-1,../static/images/invador2.png,1,80,2,40,left,70,2,916,-0.54357044921019,0,0,1,3660,736,4.97282608695652,9.94565217391304,1.07087831893432,2.14175663786864,77.8582433621314,77.8582433621314,1,1,1,1,1,1,1,1,1,1,1,1,1,4,80,1
2,177,-1,../static/images/invador4.png,2,20,2,10,right,70,1,1096,0.339586655903168,0,0,1,3740,750,4.98666666666667,9.97333333333333,8.89974993180875e-10,1.77994998636175e-09,19.9999999982201,19.9999999982201,0,-1,1,0,1,-1,1,1,1,1,NaN,NaN,NaN,4,80,0
2,178,-1,../static/images/invador1.png,4,20,8,2.5,right,70,1,1104,0.378838082797095,0,0,1,3740,752,4.97340425531915,39.7872340425532,1.35926877191646e-11,1.08741501753317e-10,19.9999999998913,19.9999999998913,0,-1,-1,-1,-1,1,1,-1,1,1,0,-0,0,10,0,0
2,180,-1,../static/images/invador2.png,1,80,2,40,left,70,2,972,-0.268810460952701,0,0,1,3820,758,5.03957783641161,10.0791556728232,1.07084744734666,2.14169489469332,77.8583051053067,77.8583051053067,1,1,1,1,1,1,-1,-1,-1,1,1,1,1,2,0,1
2,181,-1,../static/images/invador2.png,1,80,2,40,right,74,2,1010,-0.0823661832065479,0,0,1,3900,762,5.11811023622047,10.2362204724409,1.07087831804434,2.14175663608869,77.8582433639113,77.8582433639113,1,1,1,1,1,1,1,1,-1,-1,1,1,1,4,80,1
2,182,-1,../static/images/invador2.png,1,80,2,40,left,70,2,1076,0.24145808866835,0,0,1,3980,766,5.19582245430809,10.3916449086162,1.07087831893429,2.14175663786858,77.8582433621314,77.8582433621314,1,1,1,1,1,1,1,1,1,1,1,1,1,4,80,1
2,183,-1,../static/images/invador2.png,1,80,2,40,right,74,2,986,-0.200120463888329,0,0,1,4060,770,5.27272727272727,10.5454545454545,1.07087831893432,2.14175663786864,77.8582433621314,77.8582433621314,1,1,1,1,1,1,1,1,1,1,1,1,1,4,80,1
2,184,-1,../static/images/invador2.png,1,80,2,40,left,70,2,980,-0.229559034058774,0,0,1,4140,774,5.34883720930233,10.6976744186047,1.07087831893432,2.14175663786864,77.8582433621314,77.8582433621314,1,1,1,1,1,1,1,1,1,1,1,1,1,4,80,1
2,185,-1,../static/images/invador2.png,1,80,2,40,left,70,2,1012,-0.0725533264830661,0,0,1,4220,778,5.42416452442159,10.8483290488432,1.07087831893432,2.14175663786864,77.8582433621314,77.8582433621314,1,1,1,1,1,1,1,1,1,1,1,1,1,4,80,1
2,186,-1,../static/images/invador3.png,3,80,8,10,left,70,2,970,-0.278623317676183,0,0,1,4300,782,5.49872122762148,43.9897698209719,1.07087831893432,8.56702655147454,71.4329734485255,71.4329734485255,1,1,-1,0,1,1,1,1,1,1,1,1,1,4,80,1
2,188,-1,../static/images/invador4.png,2,20,2,10,right,70,1,1072,0.221832375221386,0,0,1,4400,802,5.48628428927681,10.9725685785536,0.267711861946649,0.535423723893297,19.4645762761067,19.4645762761067,0,-1,1,0,-1,-1,1,-1,1,1,1,-1,-1,10,80,-1
2,189,-1,../static/images/invador1.png,4,20,8,2.5,right,70,1,1044,0.0844523810926419,0,0,1,4400,804,5.4726368159204,43.7810945273632,0.00408879324255052,0.0327103459404041,19.9672896540596,19.9672896540596,0,-1,-1,-1,-1,1,-1,-1,1,-1,0,-0,0,10,20,0
2,190,-1,../static/images/invador4.png,2,20,2,10,left,74,1,946,-0.396377598357964,0,0,1,4400,806,5.4590570719603,10.9181141439206,6.24485970056063e-05,0.000124897194011213,19.999875102806,19.999875102806,0,-1,1,0,-1,-1,-1,1,-1,-1,0,-0,-0,2,0,-1
2,191,-1,../static/images/invador2.png,1,80,2,40,right,74,2,1248,1.08536376688778,0,0,1,4400,808,5.44554455445545,10.8910891089109,9.53784414282582e-07,1.90756882856516e-06,79.9999980924312,79.9999980924312,1,1,1,1,-1,1,-1,-1,-1,1,0,-0,0,2,0,0
2,193,-1,../static/images/invador2.png,1,80,2,40,right,74,2,980,-0.229559034058774,0,0,1,4560,816,5.58823529411765,11.1764705882353,1.07087831804434,2.14175663608869,77.8582433639113,77.8582433639113,1,1,1,1,1,1,1,1,-1,1,1,1,1,4,80,1
2,194,-1,../static/images/invador2.png,1,80,2,40,left,70,2,830,-0.965523288319906,0,0,1,4640,820,5.65853658536585,11.3170731707317,1.07087831893429,2.14175663786858,77.8582433621314,77.8582433621314,1,1,1,1,1,1,1,1,1,1,1,1,1,4,80,1
2,198,-1,../static/images/invador4.png,2,20,2,10,right,70,1,884,-0.700576156785898,0,0,1,4800,832,5.76923076923077,11.5384615384615,0.0163551801648348,0.0327103603296697,19.9672896396703,19.9672896396703,0,-1,1,0,1,1,1,1,1,-1,0,0,0,4,80,1
2,200,-1,../static/images/invador2.png,1,80,2,40,right,74,2,1028,0.00594952730478791,0,0,1,4820,844,5.71090047393365,11.4218009478673,0.26771186183669,0.535423723673381,79.4645762763266,79.4645762763266,1,1,1,1,-1,-1,-1,1,1,1,1,-1,-1,2,0,-1
2,201,-1,../static/images/invador2.png,1,80,2,40,right,74,2,888,-0.680950443338935,0,0,1,4900,848,5.77830188679245,11.5566037735849,1.07085516502108,2.14171033004216,77.8582896699578,77.8582896699578,1,1,1,1,1,1,-1,-1,-1,1,1,1,1,10,20,1
2,202,-1,../static/images/invador3.png,3,80,8,10,left,70,2,902,-0.612260446274562,0,0,1,4980,852,5.84507042253521,46.7605633802817,1.07087831826683,8.56702654613464,71.4329734538654,71.4329734538654,1,1,-1,0,1,1,1,1,-1,-1,1,1,1,4,80,1
2,203,-1,../static/images/invador2.png,1,80,2,40,left,70,2,930,-0.474880452145818,0,0,1,5060,862,5.87006960556845,11.7401392111369,1.07084744745665,2.14169489491329,77.8583051050867,77.8583051050867,1,1,1,1,1,-1,1,1,1,1,1,1,-1,4,80,0
2,204,-1,../static/images/invador2.png,1,80,2,40,left,70,2,930,-0.474880452145818,0,0,1,5140,866,5.93533487297921,11.8706697459584,1.07087831804435,2.14175663608869,77.8582433639113,77.8582433639113,1,1,1,1,1,1,1,-1,1,1,1,1,1,10,80,1
2,206,-1,../static/images/invador2.png,1,80,2,40,right,74,2,856,-0.837956150914643,0,0,1,5240,880,5.95454545454545,11.9090909090909,0.267711861946652,0.535423723893303,79.4645762761067,79.4645762761067,1,1,1,1,-1,-1,1,1,1,1,1,-1,-1,4,80,-1
2,207,-1,../static/images/invador2.png,1,80,2,40,left,70,2,928,-0.4846933088693,0,0,1,5320,884,6.01809954751131,12.0361990950226,1.07085516502108,2.14171033004217,77.8582896699578,77.8582896699578,1,1,1,1,1,1,-1,-1,1,1,1,1,1,10,20,1
2,209,-1,../static/images/invador4.png,2,20,2,10,right,70,1,1004,-0.111804753376993,0,0,1,5400,890,6.06741573033708,12.1348314606742,0.0163556444585032,0.0327112889170064,19.967288711083,19.967288711083,0,-1,1,0,1,-1,1,1,1,1,0,0,-0,4,80,0
2,213,-1,../static/images/invador2.png,1,80,2,40,right,74,2,1060,0.162955234880496,0,0,1,5560,902,6.16407982261641,12.3281596452328,1.07084791883828,2.14169583767657,77.8583041623234,77.8583041623234,1,1,1,1,1,1,-1,-1,1,1,1,1,1,2,0,1
2,214,-1,../static/images/invador3.png,3,80,8,10,left,70,2,974,-0.258997604229219,0,0,1,5640,906,6.22516556291391,49.8013245033113,1.07087831805793,8.56702654446348,71.4329734555365,71.4329734555365,1,1,-1,0,1,1,1,1,-1,-1,1,1,1,4,80,1
2,216,-1,../static/images/invador4.png,2,20,2,10,right,70,1,948,-0.386564741634482,0,0,1,5720,918,6.23093681917211,12.4618736383442,0.0163551729651627,0.0327103459303255,19.9672896540697,19.9672896540697,0,-1,1,0,1,1,1,-1,1,1,0,0,0,10,80,1
2,219,-1,../static/images/invador2.png,1,80,2,40,left,70,2,1044,0.0844523810926419,0,0,1,5800,932,6.22317596566524,12.4463519313305,0.0163551729634833,0.0327103459269666,79.967289654073,79.967289654073,1,1,1,1,-1,1,1,-1,-1,1,0,-0,0,10,80,0
2,220,-1,../static/images/invador1.png,4,20,8,2.5,right,70,1,1004,-0.111804753376993,0,0,1,5880,936,6.28205128205128,50.2564102564103,1.07084791883828,8.56678335070625,11.4332166492938,11.4332166492938,0,-1,-1,-1,1,1,-1,1,1,-1,1,1,1,2,0,1
2,223,-1,../static/images/invador2.png,1,80,2,40,left,70,2,1286,1.27180804463393,0,0,1,5880,942,6.24203821656051,12.484076433121,3.81513933535913e-06,7.63027867071826e-06,79.9999923697213,79.9999923697213,1,1,1,1,1,1,1,1,-1,-1,0,0,0,2,0,1
2,225,-1,../static/images/invador2.png,1,80,2,40,left,70,2,1072,0.221832375221386,0,0,1,5980,956,6.25523012552301,12.510460251046,0.267711861946649,0.535423723893297,79.4645762761067,79.4645762761067,1,1,1,1,-1,-1,1,1,1,1,1,-1,-1,4,80,-1
2,226,-1,../static/images/invador4.png,2,20,2,10,left,74,1,1074,0.231645231944868,0,0,1,6060,960,6.3125,12.625,1.07085516502108,2.14171033004217,17.8582896699578,17.8582896699578,0,-1,1,0,1,1,-1,-1,1,1,1,1,1,10,20,1
2,227,-1,../static/images/invador2.png,1,80,2,40,left,70,2,990,-0.180494750441365,0,0,1,6060,962,6.2993762993763,12.5987525987526,0.0163552908363885,0.032710581672777,79.9672894183272,79.9672894183272,1,1,1,1,-1,1,1,1,-1,-1,0,-0,0,4,80,0
2,228,-1,../static/images/invador2.png,1,80,2,40,right,74,2,960,-0.327687601293592,0,0,1,6140,966,6.35610766045549,12.712215320911,1.07084791884168,2.14169583768336,77.8583041623166,77.8583041623166,1,1,1,1,1,1,-1,1,1,1,1,1,1,2,0,1
2,232,-1,../static/images/invador2.png,1,80,2,40,right,74,2,942,-0.416003311804927,0,0,1,6460,988,6.53846153846154,13.0769230769231,1.07087831804435,2.14175663608869,77.8582433639113,77.8582433639113,1,1,1,1,1,1,1,-1,1,1,1,1,1,10,80,1
2,233,-1,../static/images/invador3.png,3,80,8,10,left,70,2,854,-0.847769007638125,0,0,1,6540,992,6.59274193548387,52.741935483871,1.07087831893429,8.56702655147434,71.4329734485257,71.4329734485257,1,1,-1,0,1,1,1,1,1,-1,1,1,1,4,80,1
2,234,-1,../static/images/invador4.png,2,20,2,10,right,70,1,926,-0.494506165592781,0,0,1,6620,1002,6.60678642714571,13.2135728542914,1.07084744745665,2.14169489491329,17.8583051050867,17.8583051050867,0,-1,1,0,1,-1,1,1,1,1,1,1,-1,4,80,0
2,235,-1,../static/images/invador2.png,1,80,2,40,right,74,2,1028,0.00594952730478791,0,0,1,6620,1004,6.59362549800797,13.1872509960159,0.0163551729651627,0.0327103459303255,79.9672896540697,79.9672896540697,1,1,1,1,-1,1,1,-1,1,1,0,-0,0,10,80,0
2,236,-1,../static/images/invador1.png,4,20,8,2.5,right,70,1,918,-0.533757592486709,0,0,1,6700,1008,6.6468253968254,53.1746031746032,1.07084791883828,8.56678335070625,11.4332166492938,11.4332166492938,0,-1,-1,-1,1,1,-1,1,1,-1,1,1,1,2,0,1
2,237,-1,../static/images/invador2.png,1,80,2,40,right,74,2,964,-0.308061887846628,0,0,1,6700,1010,6.63366336633663,13.2673267326733,0.0163551801646272,0.0327103603292544,79.9672896396707,79.9672896396707,1,1,1,1,-1,-1,1,1,-1,1,0,-0,-0,4,80,-1
2,238,-1,../static/images/invador4.png,2,20,2,10,right,70,1,856,-0.837956150914643,0,0,1,6780,1014,6.68639053254438,13.3727810650888,1.07084791883849,2.14169583767698,17.858304162323,17.858304162323,0,-1,1,0,1,1,-1,-1,1,1,1,1,1,2,0,1
2,239,-1,../static/images/invador1.png,4,20,8,2.5,right,70,1,1068,0.202206661774423,0,0,1,6780,1016,6.67322834645669,53.3858267716535,0.0163551801646304,0.130841441317043,19.869158558683,19.869158558683,0,-1,-1,-1,-1,1,1,1,-1,-1,0,-0,0,4,80,0
2,240,-1,../static/images/invador2.png,1,80,2,40,left,70,2,940,-0.425816168528409,0,0,1,6780,1018,6.66011787819253,13.3202357563851,0.000249794497903735,0.000499588995807469,79.9995004110042,79.9995004110042,1,1,1,1,-1,-1,-1,1,1,1,0,-0,-0,2,0,-1
2,241,-1,../static/images/invador2.png,1,80,2,40,left,70,2,1052,0.123703807986569,0,0,1,6860,1022,6.71232876712329,13.4246575342466,1.07084745454781,2.14169490909561,77.8583050909044,77.8583050909044,1,1,1,1,1,1,-1,-1,-1,1,1,1,1,2,0,1
2,242,-1,../static/images/invador3.png,3,80,8,10,right,74,2,892,-0.661324729891971,0,0,1,6940,1026,6.76413255360624,54.1130604288499,1.07087831804455,8.5670265443564,71.4329734556436,71.4329734556436,1,1,-1,0,1,1,1,1,-1,-1,1,1,1,4,80,1
2,244,-1,../static/images/invador2.png,1,80,2,40,left,70,2,916,-0.54357044921019,0,0,1,7020,1038,6.76300578034682,13.5260115606936,0.0163551729651627,0.0327103459303255,79.9672896540697,79.9672896540697,1,1,1,1,1,1,1,-1,1,1,0,0,0,10,80,1
2,246,-1,../static/images/invador2.png,1,80,2,40,left,70,2,888,-0.680950443338935,0,0,1,7100,1044,6.8007662835249,13.6015325670498,0.0163551801646272,0.0327103603292544,79.9672896396707,79.9672896396707,1,1,1,1,-1,-1,1,1,1,1,0,-0,-0,4,80,-1
2,247,-1,../static/images/invador3.png,3,80,8,10,left,70,2,912,-0.563196162657154,0,0,1,7180,1048,6.85114503816794,54.8091603053435,1.07084791883849,8.56678335070791,71.4332166492921,71.4332166492921,1,1,-1,0,1,1,-1,-1,1,1,1,1,1,2,0,1
2,249,-1,../static/images/invador2.png,1,80,2,40,right,74,2,146,-4.32152028775066,0,0,1,7340,1062,6.91148775894539,13.8229755178908,1.07087831804435,2.14175663608869,77.8582433639113,77.8582433639113,1,1,1,1,1,1,1,-1,1,1,1,1,1,10,80,1
2,250,-1,../static/images/invador2.png,1,80,2,40,right,74,2,988,-0.190307607164847,0,0,1,7420,1066,6.96060037523452,13.921200750469,1.07087831893429,2.14175663786858,77.8582433621314,77.8582433621314,1,1,1,1,1,1,1,1,1,-1,1,1,1,4,80,1
2,252,-1,../static/images/invador1.png,4,20,8,2.5,right,70,1,1064,0.182580948327459,0,0,1,7520,1074,7.00186219739292,56.0148975791434,0.267742733424324,2.14194186739459,17.8580581326054,17.8580581326054,0,-1,-1,-1,-1,1,1,1,1,1,1,-1,1,4,80,0
2,253,-1,../static/images/invador4.png,2,20,2,10,left,74,1,898,-0.631886159721526,0,0,1,7520,1076,6.98884758364312,13.9776951672862,0.00408926474608565,0.00817852949217131,19.9918214705078,19.9918214705078,0,-1,1,0,-1,-1,-1,1,1,1,0,-0,-0,4,20,-1
2,254,-1,../static/images/invador3.png,3,80,8,10,right,74,2,1106,0.388650939520576,0,0,1,7520,1078,6.97588126159555,55.8070500927644,6.24557983318916e-05,0.000499646386655132,79.9995003536133,79.9995003536133,1,1,-1,0,-1,1,-1,-1,-1,1,0,-0,0,2,0,0
3,0,-1,../static/images/invador3.png,4,20,8,2.5,right,74,2,1327,1.65550767443655,0,0,-1,0,2,0,0,6.32888918167763,50.631113453421,-30.631113453421,30.631113453421,1,-1,-1,-1,NaN,NaN,NaN,NaN,NaN,NaN,NaN,NaN,NaN,0,0,NaN
3,3,-1,../static/images/invador4.png,1,80,2,40,left,70,2,1016,0.299401311078638,0,0,-1,20,16,1.25,2.5,3.64917431740619,7.29834863481238,72.7016513651876,72.7016513651876,1,1,1,1,1,1,1,1,-1,-1,0,0,0,2,0,1
3,4,-1,../static/images/invador2.png,2,20,2,10,left,70,2,1453,2.20492697277448,0,0,-1,100,20,5,10,6.45847774180072,12.9169554836014,7.08304451639856,7.08304451639856,1,-1,1,0,1,1,1,1,1,1,1,1,1,2,0,1
3,5,-1,../static/images/invador4.png,1,80,2,40,right,74,2,1535,2.56248556375631,0,0,-1,120,24,5,10,5.89488025968269,11.7897605193654,68.2102394806346,68.2102394806346,1,1,1,1,-1,1,1,1,1,1,1,-1,1,4,80,0
3,8,-1,../static/images/invador3.png,4,20,8,2.5,left,74,1,1997,4.5770229909954,0,0,-1,280,40,7,56,7.46009727836676,59.680778226934,-39.680778226934,39.680778226934,0,-1,-1,-1,-1,1,1,-1,1,1,0,-0,0,10,80,0
3,9,-1,../static/images/invador4.png,1,80,2,40,left,70,2,1395,1.95201967671416,0,0,-1,280,42,6.66666666666667,13.3333333333333,6.72565939591426,13.4513187918285,66.5486812081715,66.5486812081715,1,1,1,1,-1,-1,-1,1,1,-1,0,-0,-0,2,0,-1
3,11,-1,../static/images/invador4.png,1,80,2,40,left,70,2,1297,1.52469355578466,0,0,-1,440,50,8.8,17.6,10.4588969409262,20.9177938818524,59.0822061181476,59.0822061181476,1,1,1,1,1,1,1,1,-1,-1,1,1,1,4,80,1
3,12,-1,../static/images/invador1.png,3,80,8,10,left,74,1,1310,1.58137967386715,0,0,-1,520,54,9.62962962962963,77.037037037037,11.7138728234655,93.7109825877241,-13.7109825877241,13.7109825877241,0,1,-1,0,1,1,1,1,1,1,1,1,1,4,80,1
3,13,-1,../static/images/invador4.png,1,80,2,40,left,70,2,992,0.194750016157128,0,0,-1,520,56,9.28571428571429,18.5714285714286,10.5606556962932,21.1213113925865,58.8786886074135,58.8786886074135,1,1,1,1,1,-1,1,1,1,1,0,0,-0,4,80,0
3,14,-1,../static/images/invador3.png,4,20,8,2.5,left,74,1,1205,1.12353025858554,0,0,-1,600,60,10,80,11.7924050180993,94.3392401447942,-74.3392401447942,74.3392401447942,0,-1,-1,-1,1,1,1,-1,1,1,1,1,1,2,0,1
3,15,-1,../static/images/invador2.png,2,20,2,10,right,70,1,1520,2.49707850443037,0,0,-1,600,62,9.67741935483871,19.3548387096774,10.6314564878931,21.2629129757862,-1.26291297578618,1.26291297578618,0,-1,1,0,-1,-1,1,1,1,-1,0,-0,-0,4,80,-1
3,18,-1,../static/images/invador4.png,1,80,2,40,right,74,2,1079,0.574110960247605,0,0,-1,760,78,9.74358974358974,19.4871794871795,10.6362963667919,21.2725927335838,58.7274072664162,58.7274072664162,1,1,1,1,1,1,1,-1,-1,1,1,1,1,10,80,1
3,19,-1,../static/images/invador4.png,1,80,2,40,right,74,2,751,-0.856123403679711,0,0,-1,840,82,10.2439024390244,20.4878048780488,11.8507806127732,23.7015612255464,56.2984387744536,56.2984387744536,1,1,1,1,1,1,1,1,1,-1,1,1,1,4,80,1
3,20,-1,../static/images/invador4.png,1,80,2,40,right,74,2,1345,1.73399614562768,0,0,-1,920,86,10.6976744186047,21.3953488372093,12.7880573398817,25.5761146797634,54.4238853202366,54.4238853202366,1,1,1,1,1,1,1,1,1,1,1,1,1,4,80,1
3,21,-1,../static/images/invador3.png,4,20,8,2.5,left,74,1,1259,1.35899567215894,0,0,-1,1000,90,11.1111111111111,88.8888888888889,13.5113995043323,108.091196034658,-88.0911960346581,88.0911960346581,0,-1,-1,-1,1,1,1,1,1,1,1,1,1,4,80,1
3,22,-1,../static/images/invador4.png,1,80,2,40,right,74,2,1248,1.31103049531991,0,0,-1,1000,92,10.8695652173913,21.7391304347826,12.1812179704121,24.3624359408242,55.6375640591758,55.6375640591758,1,1,1,1,-1,-1,1,1,1,1,0,-0,-0,4,80,-1
3,24,-1,../static/images/invador1.png,3,80,8,10,right,74,2,1458,2.22672932588313,0,0,-1,1080,106,10.188679245283,81.5094339622642,7.76840369703708,62.1472295762967,17.8527704237033,17.8527704237033,1,1,-1,0,1,1,1,1,-1,-1,NaN,NaN,NaN,4,80,1
3,26,-1,../static/images/invador4.png,1,80,2,40,left,70,2,1156,0.909867198120785,0,0,-1,1160,126,9.20634920634921,18.4126984126984,4.78585980810649,9.57171961621298,70.428280383787,70.428280383787,1,1,1,1,-1,1,1,-1,1,1,NaN,NaN,NaN,10,80,0
3,27,-1,../static/images/invador4.png,1,80,2,40,right,74,2,730,-0.947693286736033,0,0,-1,1240,130,9.53846153846154,19.0769230769231,7.33571337495169,14.6714267499034,65.3285732500966,65.3285732500966,1,1,1,1,1,1,-1,1,1,-1,1,1,1,10,0,1
3,28,-1,../static/images/invador2.png,2,20,2,10,left,70,2,1009,0.268878016726531,0,0,-1,1320,134,9.85074626865672,19.7014925373134,9.30355973742759,18.6071194748552,1.39288052514481,1.39288052514481,1,-1,1,0,1,1,1,1,-1,1,1,1,1,4,80,1
3,29,-1,../static/images/invador3.png,4,20,8,2.5,right,70,1,1366,1.82556602868401,0,0,-1,1340,138,9.71014492753623,77.6811594202899,8.09056879993364,64.7245503994691,-44.7245503994691,44.7245503994691,0,-1,-1,-1,-1,1,1,1,1,1,1,-1,1,4,80,0
3,30,-1,../static/images/invador4.png,1,80,2,40,right,74,2,1442,2.15696179593546,0,0,-1,1340,140,9.57142857142857,19.1428571428571,7.29406173098555,14.5881234619711,65.4118765380289,65.4118765380289,1,1,1,1,-1,-1,-1,1,1,1,0,-0,-0,4,20,-1
3,31,-1,../static/images/invador4.png,1,80,2,40,right,74,2,1040,0.404052606000149,0,0,-1,1420,144,9.86111111111111,19.7222222222222,9.27141513228804,18.5428302645761,61.4571697354239,61.4571697354239,1,1,1,1,1,1,-1,-1,-1,1,1,1,1,2,0,1
3,34,-1,../static/images/invador4.png,1,80,2,40,right,74,2,680,-1.16571681782251,0,0,-1,1660,162,10.2469135802469,20.4938271604938,11.1655361587183,22.3310723174367,57.6689276825633,57.6689276825633,1,1,1,1,1,1,1,-1,1,1,1,1,1,10,80,1
3,35,-1,../static/images/invador1.png,3,80,8,10,left,74,1,1198,1.09300696423343,0,0,-1,1740,166,10.4819277108434,83.855421686747,12.259220773009,98.0737661840717,-18.0737661840717,18.0737661840717,0,1,-1,0,1,1,1,1,1,-1,1,1,1,4,80,1
3,36,-1,../static/images/invador3.png,4,20,8,2.5,left,74,1,860,-0.380832105911182,0,0,-1,1740,168,10.3571428571429,82.8571428571429,11.0523147757969,88.418518206375,-68.418518206375,68.418518206375,0,-1,-1,-1,1,-1,1,1,1,1,0,0,-0,4,80,0
3,38,-1,../static/images/invador4.png,1,80,2,40,left,70,2,809,-0.603216107619393,0,0,-1,1820,174,10.4597701149425,20.9195402298851,11.332112109688,22.6642242193761,57.3357757806239,57.3357757806239,1,1,1,1,1,1,-1,-1,1,-1,1,1,1,2,0,1
3,39,-1,../static/images/invador4.png,1,80,2,40,right,74,2,841,-0.463681047724045,0,0,-1,1900,178,10.6741573033708,21.3483146067416,12.3877755588421,24.7755511176842,55.2244488823158,55.2244488823158,1,1,1,1,1,1,1,1,-1,-1,1,1,1,4,80,1
3,41,-1,../static/images/invador2.png,2,20,2,10,right,70,1,1360,1.79940320495363,0,0,-1,1980,184,10.7608695652174,21.5217391304348,11.9027135128999,23.8054270257999,-3.8054270257999,3.8054270257999,0,-1,1,0,1,1,1,1,1,1,0,0,0,4,80,1
3,42,-1,../static/images/invador4.png,1,80,2,40,right,74,2,1013,0.28631989921345,0,0,-1,1980,186,10.6451612903226,21.2903225806452,10.7309052399431,21.4618104798862,58.5381895201138,58.5381895201138,1,1,1,1,-1,1,1,1,1,1,0,-0,0,2,0,0
3,43,-1,../static/images/invador4.png,1,80,2,40,right,74,2,1444,2.16568273717892,0,0,-1,2060,190,10.8421052631579,21.6842105263158,11.9237948945772,23.8475897891544,56.1524102108456,56.1524102108456,1,1,1,1,1,1,-1,1,1,1,1,1,1,2,0,1
3,44,-1,../static/images/invador3.png,4,20,8,2.5,right,70,1,858,-0.389553047154641,0,0,-1,2140,194,11.0309278350515,88.2474226804124,12.8444060223021,102.755248178417,-82.7552481784172,82.7552481784172,0,-1,-1,-1,1,1,1,1,-1,1,1,1,1,4,80,1
3,45,-1,../static/images/invador2.png,2,20,2,10,left,74,1,1078,0.569750489625875,0,0,-1,2140,196,10.9183673469388,21.8367346938776,11.5798892193195,23.159778438639,-3.15977843863904,3.15977843863904,0,-1,1,0,-1,-1,1,1,1,1,0,-0,-0,4,80,-1
3,48,-1,../static/images/invador1.png,3,80,8,10,right,70,1,831,-0.507285753941341,0,0,-1,2300,206,11.1650485436893,89.3203883495146,12.6710621538764,101.368497231011,-21.3684972310114,21.3684972310114,0,1,-1,0,1,1,1,1,-1,1,1,1,1,4,80,1
3,50,-1,../static/images/invador2.png,2,20,2,10,left,74,1,961,0.0595754268835094,0,0,-1,2300,210,10.952380952381,21.9047619047619,10.2989696782649,20.5979393565298,-0.597939356529839,0.597939356529839,0,-1,1,0,1,1,1,-1,1,1,0,0,0,2,0,1
3,51,-1,../static/images/invador4.png,1,80,2,40,right,74,2,806,-0.616297519484582,0,0,-1,2300,212,10.8490566037736,21.6981132075472,9.2850481166947,18.5700962333894,61.4299037666106,61.4299037666106,1,1,1,1,-1,1,1,1,1,-1,0,-0,0,2,0,0
3,52,-1,../static/images/invador3.png,4,20,8,2.5,right,70,1,883,-0.280541281611401,0,0,-1,2380,216,11.0185185185185,88.1481481481482,10.8079564332476,86.4636514659811,-66.4636514659811,66.4636514659811,0,-1,-1,-1,1,1,-1,1,1,1,1,1,1,2,0,1
3,53,-1,../static/images/invador1.png,3,80,8,10,left,74,1,676,-1.18315870030943,0,0,-1,2380,218,10.9174311926606,87.3394495412844,9.74392571886383,77.9514057509107,2.04859424908935,2.04859424908935,0,1,-1,0,-1,-1,1,1,-1,1,0,-0,-0,4,80,-1
3,55,-1,../static/images/invador4.png,1,80,2,40,right,74,2,1101,0.670041313925656,0,0,-1,2460,224,10.9821428571429,21.9642857142857,10.4217729391927,20.8435458783854,59.1564541216146,59.1564541216146,1,1,1,1,1,1,1,-1,-1,-1,1,1,1,2,0,1
3,56,-1,../static/images/invador3.png,4,20,8,2.5,left,74,1,835,-0.489843871454423,0,0,-1,2540,228,11.140350877193,89.1228070175439,11.6852224206653,93.4817793653221,-73.4817793653221,73.4817793653221,0,-1,-1,-1,1,1,1,1,1,-1,1,1,1,4,80,1
3,57,-1,../static/images/invador4.png,1,80,2,40,left,70,2,965,0.0770173093704279,0,0,-1,2540,230,11.0434782608696,22.0869565217391,10.5348258922572,21.0696517845143,58.9303482154857,58.9303482154857,1,1,1,1,-1,-1,1,1,1,1,0,-0,-0,4,80,-1
3,59,-1,../static/images/invador4.png,1,80,2,40,right,74,2,725,-0.969495639844681,0,0,-1,2640,238,11.0924369747899,22.1848739495798,9.99594796005509,19.9918959201102,60.0081040798898,60.0081040798898,1,1,1,1,-1,1,1,1,-1,-1,1,-1,1,4,80,0
3,60,-1,../static/images/invador4.png,1,80,2,40,right,74,2,876,-0.311064575963508,0,0,-1,2720,242,11.2396694214876,22.4793388429752,11.3565925153472,22.7131850306943,57.2868149693057,57.2868149693057,1,1,1,1,1,1,-1,1,1,1,1,1,1,4,20,1
3,62,-1,../static/images/invador4.png,1,80,2,40,right,74,2,960,0.0552149562617798,0,0,-1,2800,248,11.2903225806452,22.5806451612903,11.1852462492678,22.3704924985356,57.6295075014644,57.6295075014644,1,1,1,1,1,-1,1,1,1,1,0,0,-0,4,80,0
3,63,-1,../static/images/invador1.png,3,80,8,10,right,70,1,886,-0.267459869746212,0,0,-1,2880,252,11.4285714285714,91.4285714285714,12.2744320112134,98.1954560897074,-18.1954560897074,18.1954560897074,0,1,-1,0,1,1,1,-1,1,1,1,1,1,2,0,1
3,64,-1,../static/images/invador2.png,2,20,2,10,right,70,1,1106,0.691843667034304,0,0,-1,2880,254,11.3385826771654,22.6771653543307,11.0660284853285,22.1320569706571,-2.13205697065705,2.13205697065705,0,-1,1,0,1,-1,1,1,1,-1,0,0,-0,4,80,0
3,65,-1,../static/images/invador4.png,1,80,2,40,right,74,2,905,-0.184610927933349,0,0,-1,2880,256,11.25,22.5,9.97659087819547,19.9531817563909,60.0468182436091,60.0468182436091,1,1,1,1,-1,1,1,-1,1,1,0,-0,0,2,0,0
3,66,-1,../static/images/invador3.png,4,20,8,2.5,left,74,1,1218,1.18021637666802,0,0,-1,2960,260,11.3846153846154,91.0769230769231,11.341653711166,90.7332296893284,-70.7332296893284,70.7332296893284,0,-1,-1,-1,1,1,-1,1,1,-1,1,1,1,2,0,1
3,68,-1,../static/images/invador4.png,1,80,2,40,right,74,2,848,-0.433157753371938,0,0,-1,3040,266,11.4285714285714,22.8571428571429,11.5334257518499,23.0668515036999,56.9331484963001,56.9331484963001,1,1,1,1,1,1,-1,-1,1,1,1,1,1,2,0,1
3,69,-1,../static/images/invador4.png,1,80,2,40,left,70,2,902,-0.197692339798538,0,0,-1,3120,270,11.5555555555556,23.1111111111111,12.5431391152424,25.0862782304848,54.9137217695152,54.9137217695152,1,1,1,1,1,1,1,1,-1,-1,1,1,1,4,80,1
3,70,-1,../static/images/invador3.png,4,20,8,2.5,right,70,1,1015,0.295040840456909,0,0,-1,3200,274,11.6788321167883,93.4306569343066,13.3223841648919,106.579073319135,-86.5790733191351,86.5790733191351,0,-1,-1,-1,1,1,1,1,1,1,1,1,1,4,80,1
3,71,-1,../static/images/invador4.png,1,80,2,40,right,74,2,873,-0.324145987828697,0,0,-1,3200,276,11.5942028985507,23.1884057971014,12.0108109708458,24.0216219416916,55.9783780583084,55.9783780583084,1,1,1,1,-1,-1,1,1,1,1,0,-0,-0,4,80,-1
3,72,-1,../static/images/invador2.png,2,20,2,10,right,70,1,1047,0.434575900352257,0,0,-1,3280,280,11.7142857142857,23.4285714285714,12.9115605724256,25.8231211448512,-5.82312114485115,5.82312114485115,0,-1,1,0,1,1,-1,-1,1,1,1,1,1,2,0,1
3,73,-1,../static/images/invador4.png,1,80,2,40,right,74,2,988,0.177308133670209,0,0,-1,3280,282,11.6312056737589,23.2624113475177,11.6404324822507,23.2808649645013,56.7191350354987,56.7191350354987,1,1,1,1,-1,1,1,1,-1,-1,0,-0,0,4,80,0
3,74,-1,../static/images/invador1.png,3,80,8,10,right,70,1,785,-0.707867402540904,0,0,-1,3360,286,11.7482517482517,93.986013986014,12.6257214281711,101.005771425369,-21.0057714253687,21.0057714253687,0,1,-1,0,1,1,-1,1,1,1,1,1,1,2,0,1
3,76,-1,../static/images/invador4.png,1,80,2,40,right,74,2,840,-0.468041518345775,0,0,-1,3440,292,11.7808219178082,23.5616438356164,12.4268428391941,24.8536856783883,55.1463143216117,55.1463143216117,1,1,1,1,1,1,1,-1,1,1,1,1,1,2,0,1
3,78,-1,../static/images/invador1.png,3,80,8,10,left,74,1,847,-0.437518223993667,0,0,-1,3540,306,11.5686274509804,92.5490196078431,8.39386118405459,67.1508894724367,12.8491105275633,12.8491105275633,0,1,-1,0,-1,-1,1,1,1,1,1,-1,-1,4,80,-1
3,79,-1,../static/images/invador4.png,1,80,2,40,left,70,2,806,-0.616297519484582,0,0,-1,3540,308,11.4935064935065,22.987012987013,7.56749533337135,15.1349906667427,64.8650093332573,64.8650093332573,1,1,1,1,1,-1,-1,-1,1,1,0,0,-0,10,20,0
3,81,-1,../static/images/invador2.png,2,20,2,10,left,74,1,1123,0.765971667603708,0,0,-1,3700,316,11.7088607594937,23.4177215189873,10.9602912003638,21.9205824007277,-1.92058240072769,1.92058240072769,0,-1,1,0,1,1,1,1,1,-1,1,1,1,4,80,1
3,82,-1,../static/images/invador4.png,1,80,2,40,right,74,2,1090,0.62207613708663,0,0,-1,3700,318,11.6352201257862,23.2704402515723,9.88126330570075,19.7625266114015,60.2374733885985,60.2374733885985,1,1,1,1,-1,1,1,1,1,1,0,-0,0,4,80,0
3,86,-1,../static/images/invador1.png,3,80,8,10,left,70,2,0,-4.13083684059866,0,0,-1,3780,328,11.5243902439024,92.1951219512195,8.25698019939173,66.0558415951339,13.9441584048661,13.9441584048661,1,1,-1,0,1,1,1,1,1,1,0,0,0,2,0,1
3,88,-1,../static/images/invador4.png,1,80,2,40,left,70,2,903,-0.193331869176809,0,0,-1,3860,348,11.0919540229885,22.183908045977,4.95042256606562,9.90084513213124,70.0991548678688,70.0991548678688,1,1,1,1,-1,1,1,-1,1,1,NaN,NaN,NaN,10,80,0
3,89,-1,../static/images/invador3.png,4,20,8,2.5,left,74,1,1083,0.591552842734523,0,0,-1,3940,352,11.1931818181818,89.5454545454545,7.46271448154839,59.7017158523871,-39.7017158523871,39.7017158523871,0,-1,-1,-1,1,1,-1,1,1,-1,1,1,1,10,0,1
3,90,-1,../static/images/invador4.png,1,80,2,40,left,70,2,1079,0.574110960247605,0,0,-1,3940,354,11.1299435028249,22.2598870056497,6.72801893849296,13.4560378769859,66.5439621230141,66.5439621230141,1,1,1,1,-1,-1,1,1,-1,1,0,-0,-0,4,80,-1
3,92,-1,../static/images/invador4.png,1,80,2,40,left,70,2,958,0.0464940150183206,0,0,-1,4020,360,11.1666666666667,22.3333333333333,7.96481895495303,15.9296379099061,64.0703620900939,64.0703620900939,1,1,1,1,-1,-1,1,1,-1,-1,0,-0,-0,4,80,-1
3,93,-1,../static/images/invador4.png,1,80,2,40,left,70,2,1042,0.412773547243609,0,0,-1,4100,364,11.2637362637363,22.5274725274725,9.78907119711138,19.5781423942228,60.4218576057772,60.4218576057772,1,1,1,1,1,1,-1,-1,1,1,1,1,1,2,0,1
3,94,-1,../static/images/invador4.png,1,80,2,40,left,70,2,910,-0.162808574824701,0,0,-1,4180,368,11.3586956521739,22.7173913043478,11.1969356273074,22.3938712546148,57.6061287453852,57.6061287453852,1,1,1,1,1,1,1,1,-1,-1,1,1,1,4,80,1
3,95,-1,../static/images/invador4.png,1,80,2,40,right,74,2,675,-1.18751917093116,0,0,-1,4260,372,11.4516129032258,22.9032258064516,12.2834532743769,24.5669065487538,55.4330934512462,55.4330934512462,1,1,1,1,1,1,1,1,1,1,1,1,1,4,80,1
3,96,-1,../static/images/invador2.png,2,20,2,10,right,70,1,1225,1.21073967102013,0,0,-1,4340,376,11.5425531914894,23.0851063829787,13.1219719357434,26.2439438714868,-6.24394387148681,6.24394387148681,0,-1,1,0,1,1,1,1,1,1,1,1,1,4,80,1
3,99,-1,../static/images/invador2.png,2,20,2,10,right,74,2,858,-0.389553047154641,0,0,-1,4420,390,11.3333333333333,22.6666666666667,9.31518089312067,18.6303617862413,1.36963821375866,1.36963821375866,1,-1,1,0,1,1,1,-1,-1,1,0,0,0,10,80,1
3,100,-1,../static/images/invador4.png,1,80,2,40,right,74,2,889,-0.254378457881023,0,0,-1,4440,394,11.2690355329949,22.5380710659898,8.09953741258487,16.1990748251697,63.8009251748303,63.8009251748303,1,1,1,1,-1,1,1,1,1,-1,1,-1,1,2,0,0
3,101,-1,../static/images/invador4.png,1,80,2,40,left,70,2,1369,1.83864744054919,0,0,-1,4520,398,11.356783919598,22.713567839196,9.89304000153852,19.786080003077,60.213919996923,60.213919996923,1,1,1,1,1,1,-1,1,1,1,1,1,1,4,20,1
3,102,-1,../static/images/invador3.png,4,20,8,2.5,left,74,1,940,-0.0319944561728126,0,0,-1,4600,402,11.4427860696517,91.5422885572139,11.2771734245924,90.2173873967391,-70.2173873967391,70.2173873967391,0,-1,-1,-1,1,1,1,1,-1,1,1,1,1,4,80,1
3,103,-1,../static/images/invador1.png,3,80,8,10,left,74,1,860,-0.380832105911182,0,0,-1,4600,404,11.3861386138614,91.0891089108911,10.1669488442742,81.335590754194,-1.33559075419399,1.33559075419399,0,1,-1,0,-1,-1,1,1,1,1,0,-0,-0,4,80,-1
3,104,-1,../static/images/invador4.png,1,80,2,40,left,70,2,922,-0.110482927363946,0,0,-1,4600,406,11.3300492610837,22.6600985221675,9.16602457994261,18.3320491598852,61.6679508401148,61.6679508401148,1,1,1,1,1,-1,-1,-1,1,1,0,0,-0,2,0,0
3,105,-1,../static/images/invador2.png,2,20,2,10,left,74,1,913,-0.149727162959512,0,0,-1,4680,410,11.4146341463415,22.8292682926829,10.7161001647575,21.432200329515,-1.43220032951505,1.43220032951505,0,-1,1,0,1,1,1,-1,-1,-1,1,1,1,2,0,1
3,106,-1,../static/images/invador4.png,1,80,2,40,left,70,2,923,-0.106122456742216,0,0,-1,4680,412,11.3592233009709,22.7184466019417,9.66111259294982,19.3222251858996,60.6777748141004,60.6777748141004,1,1,1,1,-1,1,1,1,1,-1,0,-0,0,4,80,0
3,107,-1,../static/images/invador3.png,4,20,8,2.5,left,74,1,779,-0.734030226271281,0,0,-1,4760,416,11.4423076923077,91.5384615384615,11.0981837315041,88.7854698520327,-68.7854698520327,68.7854698520327,0,-1,-1,-1,1,1,-1,1,1,1,1,1,1,2,0,1
3,108,-1,../static/images/invador1.png,3,80,8,10,left,74,1,617,-1.44042646699148,0,0,-1,4760,418,11.3875598086124,91.1004784688995,10.0055804778614,80.044643822891,-0.044643822891004,0.044643822891004,0,1,-1,0,-1,-1,1,1,-1,1,0,-0,-0,4,80,-1
3,109,-1,../static/images/invador4.png,1,80,2,40,left,70,2,862,-0.372111164667723,0,0,-1,4760,420,11.3333333333333,22.6666666666667,9.0205427411313,18.0410854822626,61.9589145177374,61.9589145177374,1,1,1,1,1,-1,-1,-1,1,1,0,0,-0,2,0,0
3,111,-1,../static/images/invador4.png,1,80,2,40,right,74,2,1017,0.303761781700368,0,0,-1,4920,428,11.4953271028037,22.9906542056075,11.8257206700801,23.6514413401602,56.3485586598398,56.3485586598398,1,1,1,1,1,1,1,1,1,-1,1,1,1,4,80,1
3,112,-1,../static/images/invador4.png,1,80,2,40,left,70,2,1117,0.73980884387333,0,0,-1,5000,432,11.5740740740741,23.1481481481481,12.7687173598477,25.5374347196954,54.4625652803046,54.4625652803046,1,1,1,1,1,1,1,1,1,1,1,1,1,4,80,1
