subj,trial_index_actual,block,stimulus,stim_rank,reward_percent,delay_s,profitability,stim_left_right,key_press,approach_avoid,rt,rt_z,force_trial,missed,order_condition,reward_sum,delay_sum,Q_arithmetic,opp_cost_arithmetic,Q_estimate,opp_cost_estimate
1,0,0,../static/images/invador1.png,4,20,8,2.5,right,74,2,1195.0,1.09567386648762,1,0,1,0.0,2.0,0.0,0.0,6.457165737769712,51.657325902157694
1,1,0,../static/images/invador3.png,1,80,2,40.0,right,74,2,718.0,-1.04463596508796,0,0,1,20.0,12.0,1.6666666666666667,3.3333333333333335,4.8306124470408625,9.661224894081725
1,2,0,../static/images/invador2.png,2,20,2,10.0,left,70,0,NaN,NaN,2,1,1,100.0,16.0,6.25,12.5,6.931333395040576,13.862666790081152
1,3,0,../static/images/invador4.png,3,80,8,10.0,left,70,2,933.0,-0.0799260829312511,0,0,1,100.0,26.0,3.8461538461538463,30.76923076923077,4.563950196919817,36.51160157535853
1,4,0,../static/images/invador3.png,1,80,2,40.0,left,70,2,750.0,-0.901051238441381,1,0,1,180.0,36.0,5.0,10.0,5.893685858611484,11.787371717222968
1,5,0,../static/images/invador3.png,1,80,2,40.0,right,74,2,628.0,-1.44846800878147,0,0,1,260.0,40.0,6.5,13.0,7.793964889559313,15.587929779118626
1,6,0,../static/images/invador3.png,1,80,2,40.0,left,74,1,657.0,-1.31834435025801,2,0,1,340.0,44.0,7.7272727272727275,15.454545454545455,9.33594733651683,18.67189467303366
1,7,0,../static/images/invador3.png,1,80,2,40.0,right,74,2,884.0,-0.299790195608827,0,0,1,340.0,46.0,7.391304347826087,14.782608695652174,8.587430095581036,17.17486019116207
1,8,0,../static/images/invador4.png,3,80,8,10.0,right,74,2,492.0,-2.05870309702943,0,0,1,420.0,50.0,8.4,67.2,9.979805106892142,79.83844085513714
1,9,0,../static/images/invador3.png,1,80,2,40.0,left,70,2,596.0,-1.59205273542805,0,0,1,500.0,60.0,8.333333333333334,16.666666666666668,9.313823149132789,18.627646298265578
1,10,0,../static/images/invador1.png,4,20,8,2.5,right,74,2,618.0,-1.49333823585852,1,0,1,580.0,64.0,9.0625,72.5,10.569237142886347,84.55389714309078
1,11,0,../static/images/invador3.png,1,80,2,40.0,right,74,2,512.0,-1.96896264287532,1,0,1,600.0,74.0,8.108108108108109,16.216216216216218,7.427404456374363,14.854808912748727
1,12,0,../static/images/invador2.png,2,20,2,10.0,left,70,2,631.0,-1.43500694065835,0,0,1,680.0,78.0,8.717948717948717,17.435897435897434,9.038501674845552,18.077003349691104
1,13,0,../static/images/invador3.png,1,80,2,40.0,left,70,2,824.0,-0.569011558071165,0,0,1,700.0,82.0,8.536585365853659,17.073170731707318,8.087179648649196,16.17435929729839
1,14,0,../static/images/invador3.png,1,80,2,40.0,left,70,2,1063.0,0.503386869070481,0,0,1,780.0,86.0,9.069767441860465,18.13953488372093,9.573876611292839,19.147753222585678
1,15,0,../static/images/invador1.png,4,20,8,2.5,right,70,1,1007.0,0.252113597438965,0,0,1,860.0,90.0,9.555555555555555,76.44444444444444,10.780257665341576,86.24206132273261
1,16,0,../static/images/invador2.png,2,20,2,10.0,right,70,1,1072.0,0.543770073439832,0,0,1,860.0,92.0,9.347826086956522,18.695652173913043,9.915941658258252,19.831883316516503
1,17,0,../static/images/invador3.png,1,80,2,40.0,left,70,2,893.0,-0.259406991239476,0,0,1,860.0,94.0,9.148936170212766,18.29787234042553,9.120922896499795,18.24184579299959
1,18,0,../static/images/invador3.png,1,80,2,40.0,left,70,2,1044.0,0.418133437624074,0,0,1,940.0,98.0,9.591836734693878,19.183673469387756,10.412708128605017,20.825416257210033
1,19,0,../static/images/invador3.png,1,80,2,40.0,left,70,2,1044.0,0.418133437624074,0,0,1,1020.0,102.0,10.0,20.0,11.460927953538654,22.92185590707731
1,20,0,../static/images/invador4.png,3,80,8,10.0,left,74,1,870.0,-0.362608513516706,0,0,1,1100.0,106.0,10.377358490566039,83.01886792452831,12.311506497150926,98.49205197720741
1,21,0,../static/images/invador2.png,2,20,2,10.0,right,70,1,1019.0,0.305957869931433,0,0,1,1100.0,108.0,10.185185185185185,20.37037037037037,11.324421358081503,22.648842716163006
1,22,0,../static/images/invador3.png,1,80,2,40.0,left,70,2,1130.0,0.804017390486758,0,0,1,1100.0,110.0,10.0,20.0,10.416476580266586,20.832953160533172
1,23,0,../static/images/invador4.png,3,80,8,10.0,left,74,1,712.0,-1.0715581013342,0,0,1,1180.0,114.0,10.350877192982455,82.80701754385964,11.463985865676666,91.71188692541332
1,24,0,../static/images/invador1.png,4,20,8,2.5,left,74,1,737.0,-0.959382533641555,0,0,1,1180.0,116.0,10.172413793103448,81.37931034482759,10.5448513889065,84.358811111252
1,25,0,../static/images/invador3.png,1,80,2,40.0,left,70,2,1111.0,0.718763959040351,0,0,1,1180.0,118.0,10.0,20.0,9.699409273265015,19.39881854653003
1,26,0,../static/images/invador3.png,1,80,2,40.0,right,70,1,838.0,-0.506193240163286,2,0,1,1260.0,122.0,10.327868852459016,20.65573770491803,10.882121211762126,21.76424242352425
1,27,0,../static/images/invador3.png,1,80,2,40.0,right,74,2,1205.0,1.14054409356468,0,0,1,1260.0,124.0,10.161290322580646,20.322580645161292,10.009638211231826,20.01927642246365
1,28,0,../static/images/invador3.png,1,80,2,40.0,right,70,1,606.0,-1.54718250835099,2,0,1,1340.0,128.0,10.46875,20.9375,11.133856651185718,22.267713302371437
1,29,0,../static/images/invador3.png,1,80,2,40.0,left,70,2,997.0,0.207243370361909,0,0,1,1340.0,130.0,10.307692307692308,20.615384615384617,10.241190555167499,20.482381110334998
1,30,0,../static/images/invador2.png,2,20,2,10.0,left,74,1,682.0,-1.20616878256536,2,0,1,1420.0,134.0,10.597014925373134,21.19402985074627,11.321749925850014,22.643499851700028
1,31,0,../static/images/invador4.png,3,80,8,10.0,right,74,2,859.0,-0.411965763301468,1,0,1,1420.0,136.0,10.441176470588236,83.52941176470588,10.41401933230705,83.3121546584564
1,32,0,../static/images/invador1.png,4,20,8,2.5,right,70,1,830.0,-0.542089421824931,0,0,1,1500.0,146.0,10.273972602739725,82.1917808219178,9.588031430023374,76.704251440187
1,33,0,../static/images/invador3.png,1,80,2,40.0,left,70,2,1107.0,0.700815868209529,0,0,1,1500.0,148.0,10.135135135135135,20.27027027027027,8.819303139972375,17.63860627994475
1,34,0,../static/images/invador3.png,1,80,2,40.0,right,74,2,1262.0,1.3963043879039,0,0,1,1580.0,152.0,10.394736842105264,20.789473684210527,10.167958614114557,20.335917228229114
1,35,0,../static/images/invador3.png,1,80,2,40.0,left,70,2,1328.0,1.69244788661247,0,0,1,1660.0,156.0,10.64102564102564,21.28205128205128,11.262325827693259,22.524651655386517
1,36,0,../static/images/invador3.png,1,80,2,40.0,left,70,2,1332.0,1.7103959774433,0,0,1,1740.0,160.0,10.875,21.75,12.15035069476895,24.3007013895379
1,37,0,../static/images/invador1.png,4,20,8,2.5,right,74,2,815.0,-0.609394762440515,1,0,1,1820.0,164.0,11.097560975609756,88.78048780487805,12.870938953225657,102.96751162580526
1,38,0,../static/images/invador3.png,1,80,2,40.0,right,74,2,1164.0,0.956576162548749,0,0,1,1840.0,174.0,10.574712643678161,21.149425287356323,8.88093973825696,17.76187947651392
1,39,0,../static/images/invador3.png,1,80,2,40.0,left,70,2,1452.0,2.24883870236797,0,0,1,1920.0,178.0,10.786516853932584,21.573033707865168,10.21797366511346,20.43594733022692
1,40,0,../static/images/invador4.png,3,80,8,10.0,right,70,1,1048.0,0.436081528454896,0,0,1,2000.0,182.0,10.989010989010989,87.91208791208791,11.302910567864563,90.4232845429165
1,41,0,../static/images/invador2.png,2,20,2,10.0,left,74,1,1228.0,1.24374561584191,0,0,1,2000.0,184.0,10.869565217391305,21.73913043478261,10.396690435312003,20.793380870624006
1,42,0,../static/images/invador3.png,1,80,2,40.0,right,74,2,1304.0,1.58475934162754,0,0,1,2000.0,186.0,10.75268817204301,21.50537634408602,9.563127245739992,19.126254491479983
1,43,0,../static/images/invador2.png,2,20,2,10.0,left,74,1,906.0,-0.201075696039303,0,0,1,2080.0,190.0,10.947368421052632,21.894736842105264,10.771535086852591,21.543070173705182
1,44,0,../static/images/invador1.png,4,20,8,2.5,right,70,1,782.0,-0.757466511794801,0,0,1,2080.0,192.0,10.833333333333334,86.66666666666667,9.90791841965938,79.26334735727504
1,45,0,../static/images/invador3.png,1,80,2,40.0,left,70,2,1384.0,1.94372115824399,0,0,1,2080.0,194.0,10.721649484536082,21.443298969072163,9.113542927641307,18.227085855282613
1,46,0,../static/images/invador4.png,3,80,8,10.0,right,70,1,954.0,0.0143013939305671,0,0,1,2160.0,198.0,10.909090909090908,87.27272727272727,10.406719648885169,83.25375719108135
1,47,0,../static/images/invador3.png,1,80,2,40.0,left,74,1,753.0,-0.887590170318265,2,0,1,2160.0,200.0,10.8,21.6,9.572352358882643,19.144704717765286
1,48,0,../static/images/invador3.png,1,80,2,40.0,left,70,2,1212.0,1.17195325251862,0,0,1,2160.0,202.0,10.693069306930694,21.386138613861387,8.804881151230212,17.609762302460425
1,49,0,../static/images/invador3.png,1,80,2,40.0,right,70,1,700.0,-1.12540237382666,2,0,1,2240.0,206.0,10.87378640776699,21.74757281553398,10.156255883553172,20.312511767106344
1,50,0,../static/images/invador4.png,3,80,8,10.0,left,74,1,1032.0,0.364289165131606,0,0,1,2240.0,208.0,10.76923076923077,86.15384615384616,9.341969731524443,74.73575785219555
1,51,0,../static/images/invador2.png,2,20,2,10.0,left,74,1,1086.0,0.60658839134771,0,0,1,2240.0,210.0,10.666666666666666,21.333333333333332,8.592969640125549,17.185939280251098
1,52,0,../static/images/invador1.png,4,20,8,2.5,right,70,1,990.0,0.17583421140797,0,0,1,2240.0,212.0,10.566037735849056,84.52830188679245,7.904021245856699,63.23216996685359
1,53,0,../static/images/invador3.png,1,80,2,40.0,right,74,2,1172.0,0.992472344210395,0,0,1,2240.0,214.0,10.467289719626168,20.934579439252335,7.270309854608226,14.540619709216452
1,54,0,../static/images/invador3.png,1,80,2,40.0,left,74,1,706.0,-1.09848023758043,2,0,1,2320.0,218.0,10.642201834862385,21.28440366972477,8.911027175316741,17.822054350633483
1,55,0,../static/images/invador3.png,1,80,2,40.0,right,74,2,833.0,-0.528628353701814,1,0,1,2320.0,220.0,10.545454545454545,21.09090909090909,8.196578257092604,16.393156514185208
1,56,0,../static/images/invador1.png,4,20,8,2.5,left,74,1,1077.0,0.56620518697836,0,0,1,2400.0,224.0,10.714285714285714,85.71428571428571,9.662648171255364,77.30118537004292
1,57,0,../static/images/invador3.png,1,80,2,40.0,left,70,2,1216.0,1.18990134334944,0,0,1,2400.0,226.0,10.619469026548673,21.238938053097346,8.88793742272839,17.77587484545678
1,58,0,../static/images/invador3.png,1,80,2,40.0,left,74,1,529.0,-1.89268325684433,2,0,1,2480.0,230.0,10.782608695652174,21.565217391304348,10.223651939960765,20.44730387992153
1,59,0,../static/images/invador3.png,1,80,2,40.0,left,74,1,4.0,-4.24837017838978,2,0,1,2480.0,232.0,10.689655172413794,21.379310344827587,9.40396225378882,18.80792450757764
1,60,0,../static/images/invador3.png,1,80,2,40.0,left,70,2,1383.0,1.93923413553628,1,0,1,2480.0,234.0,10.598290598290598,21.196581196581196,8.649991861032024,17.29998372206405
1,61,0,../static/images/invador4.png,3,80,8,10.0,right,70,1,1122.0,0.768121208825113,0,0,1,2560.0,238.0,10.756302521008404,86.05042016806723,10.030570885288371,80.24456708230697
1,62,0,../static/images/invador2.png,2,20,2,10.0,right,70,1,1212.0,1.17195325251862,0,0,1,2560.0,240.0,10.666666666666666,21.333333333333332,9.226361631161605,18.45272326232321
1,63,0,../static/images/invador3.png,1,80,2,40.0,left,70,2,1288.0,1.51296697830425,0,0,1,2560.0,242.0,10.578512396694215,21.15702479338843,8.48663051410396,16.97326102820792
1,64,0,../static/images/invador2.png,2,20,2,10.0,right,70,1,926.0,-0.111335241885191,0,0,1,2640.0,246.0,10.731707317073171,21.463414634146343,9.8980112320101,19.7960224640202
1,65,0,../static/images/invador3.png,1,80,2,40.0,right,74,2,1307.0,1.59822040975065,0,0,1,2640.0,248.0,10.64516129032258,21.29032258064516,9.104430056893932,18.208860113787864
1,66,0,../static/images/invador3.png,1,80,2,40.0,left,70,2,1225.0,1.23028454771879,0,0,1,2720.0,252.0,10.793650793650794,21.58730158730159,10.399325004990773,20.798650009981547
1,67,0,../static/images/invador1.png,4,20,8,2.5,right,70,1,799.0,-0.681187125763806,0,0,1,2800.0,256.0,10.9375,87.5,11.450068210646931,91.60054568517545
1,68,0,../static/images/invador3.png,1,80,2,40.0,right,74,2,1272.0,1.44117461498096,0,0,1,2800.0,258.0,10.852713178294573,21.705426356589147,10.532049593292808,21.064099186585615
1,69,0,../static/images/invador4.png,3,80,8,10.0,left,70,2,1033.0,0.368776187839312,1,0,1,2880.0,262.0,10.992366412213741,87.93893129770993,11.557767649575812,92.4621411966065
1,70,0,../static/images/invador2.png,2,20,2,10.0,right,70,1,992.0,0.184808256823381,0,0,1,2960.0,272.0,10.882352941176471,21.764705882352942,10.310313754030807,20.620627508061613
1,71,0,../static/images/invador3.png,1,80,2,40.0,left,70,2,1322.0,1.66552575036624,0,0,1,2960.0,274.0,10.802919708029197,21.605839416058394,9.483675885781132,18.967351771562264
1,72,0,../static/images/invador3.png,1,80,2,40.0,left,70,2,1277.0,1.46360972851949,0,0,1,3040.0,278.0,10.93525179856115,21.8705035971223,10.707064237862399,21.414128475724798
1,73,0,../static/images/invador3.png,1,80,2,40.0,left,70,2,1295.0,1.54437613725819,0,0,1,3120.0,282.0,11.063829787234043,22.127659574468087,11.699783377525097,23.399566755050195
1,74,0,../static/images/invador4.png,3,80,8,10.0,right,70,1,899.0,-0.232484854993243,0,0,1,3200.0,286.0,11.188811188811188,89.5104895104895,12.505325860070482,100.04260688056385
1,75,0,../static/images/invador1.png,4,20,8,2.5,right,70,1,953.0,0.00981437122286147,2,0,1,3200.0,288.0,11.11111111111111,88.88888888888889,11.502701094486136,92.02160875588909
1,76,0,../static/images/invador3.png,1,80,2,40.0,left,70,2,3.0,-4.25285720109749,0,0,1,3200.0,290.0,11.03448275862069,22.06896551724138,10.580462592467528,21.160925184935056
1,77,0,../static/images/invador2.png,2,20,2,10.0,left,74,1,975.0,0.108528870792385,0,0,1,3280.0,294.0,11.156462585034014,22.312925170068027,11.59705240392831,23.19410480785662
1,78,0,../static/images/invador3.png,1,80,2,40.0,left,70,2,1388.0,1.96166924907481,0,0,1,3280.0,296.0,11.08108108108108,22.16216216216216,10.66724920822874,21.33449841645748
1,79,0,../static/images/invador3.png,1,80,2,40.0,left,70,2,1032.0,0.364289165131606,1,0,1,3360.0,300.0,11.2,22.4,11.667475450204776,23.334950900409552
1,80,0,../static/images/invador4.png,3,80,8,10.0,right,70,1,849.0,-0.456835990378524,0,0,1,3440.0,304.0,11.31578947368421,90.52631578947368,12.47910957498067,99.83287659984536
1,81,0,../static/images/invador3.png,1,80,2,40.0,right,74,2,1271.0,1.43668759227325,0,0,1,3440.0,306.0,11.241830065359476,22.483660130718953,11.478586721572526,22.957173443145052
1,82,0,../static/images/invador3.png,1,80,2,40.0,left,74,1,971.0,0.0905807799615628,2,0,1,3520.0,310.0,11.35483870967742,22.70967741935484,12.325835714018382,24.651671428036764
1,83,0,../static/images/invador1.png,4,20,8,2.5,left,74,1,1035.0,0.377750233254723,0,0,1,3520.0,312.0,11.282051282051283,90.25641025641026,11.337601718224754,90.70081374579803
1,84,0,../static/images/invador3.png,1,80,2,40.0,left,70,2,1272.0,1.44117461498096,0,0,1,3520.0,314.0,11.210191082802547,22.420382165605094,10.428600194216509,20.857200388433018
1,85,0,../static/images/invador3.png,1,80,2,40.0,left,70,2,1266.0,1.41425247873472,0,0,1,3600.0,318.0,11.320754716981131,22.641509433962263,11.473823578770382,22.947647157540764
1,86,0,../static/images/invador4.png,3,80,8,10.0,right,70,1,825.0,-0.564524535363459,2,0,1,3680.0,322.0,11.428571428571429,91.42857142857143,12.321970659216618,98.57576527373294
1,87,0,../static/images/invador2.png,2,20,2,10.0,right,70,1,1137.0,0.835426549440697,2,0,1,3680.0,324.0,11.358024691358025,22.71604938271605,11.334046547364276,22.66809309472855
1,88,0,../static/images/invador3.png,1,80,2,40.0,left,70,2,1360.0,1.83603261325905,0,0,1,3680.0,326.0,11.28834355828221,22.57668711656442,10.425330062097963,20.850660124195926
1,89,0,../static/images/invador1.png,4,20,8,2.5,left,74,1,724.0,-1.01771382884173,0,0,1,3760.0,330.0,11.393939393939394,91.15151515151516,11.471170028294951,91.76936022635961
1,90,0,../static/images/invador3.png,1,80,2,40.0,right,74,2,1119.0,0.754660140701996,0,0,1,3760.0,332.0,11.325301204819278,22.650602409638555,10.551459555389883,21.102919110779766
1,91,0,../static/images/invador1.png,4,20,8,2.5,right,74,2,1174.0,1.00144638962581,1,0,1,3840.0,336.0,11.428571428571429,91.42857142857143,11.573517873812552,92.58814299050042
1,92,0,../static/images/invador2.png,2,20,2,10.0,left,70,2,943.0,-0.0350558558541948,1,0,1,3860.0,346.0,11.15606936416185,22.3121387283237,8.061612358005588,16.123224716011176
1,93,0,../static/images/invador3.png,1,80,2,40.0,right,74,2,881.0,-0.313251263731944,1,0,1,3880.0,350.0,11.085714285714285,22.17142857142857,7.294482284390955,14.58896456878191
1,94,0,../static/images/invador3.png,1,80,2,40.0,left,70,2,1179.0,1.02388150316433,0,0,1,3960.0,354.0,11.186440677966102,22.372881355932204,8.930641906531605,17.86128381306321
1,95,0,../static/images/invador4.png,3,80,8,10.0,right,74,2,1022.0,0.31941893805455,1,0,1,4040.0,358.0,11.28491620111732,90.27932960893855,10.258304516429018,82.06643613143214
1,96,0,../static/images/invador3.png,1,80,2,40.0,right,74,2,1010.0,0.265574665562082,0,0,1,4120.0,368.0,11.195652173913043,22.391304347826086,9.48969680745243,18.97939361490486
1,97,0,../static/images/invador3.png,1,80,2,40.0,right,74,2,1157.0,0.92516700359481,0,0,1,4200.0,372.0,11.290322580645162,22.580645161290324,10.711949918007495,21.42389983601499
1,98,0,../static/images/invador2.png,2,20,2,10.0,left,74,1,901.0,-0.223510809577831,2,0,1,4280.0,376.0,11.382978723404255,22.76595744680851,11.703747865320045,23.40749573064009
1,99,0,../static/images/invador3.png,1,80,2,40.0,right,74,2,1374.0,1.89885093116693,0,0,1,4280.0,378.0,11.322751322751323,22.645502645502646,10.7653902734245,21.530780546849
1,100,0,../static/images/invador3.png,1,80,2,40.0,left,70,2,1083.0,0.593127323224593,0,0,1,4360.0,382.0,11.413612565445026,22.827225130890053,11.747112070613143,23.494224141226287
1,101,0,../static/images/invador3.png,1,80,2,40.0,right,74,2,1159.0,0.934141049010221,1,0,1,4440.0,386.0,11.50259067357513,23.00518134715026,12.543730753662768,25.087461507325536
1,102,0,../static/images/invador1.png,4,20,8,2.5,left,70,2,1197.0,1.10464791190304,1,0,1,4520.0,390.0,11.58974358974359,92.71794871794872,13.190147414677146,105.52117931741716
1,103,0,../static/images/invador3.png,1,80,2,40.0,left,74,1,876.0,-0.335686377270472,2,0,1,4540.0,400.0,11.35,22.7,9.08252135013691,18.16504270027382
1,104,0,../static/images/invador4.png,3,80,8,10.0,left,74,1,987.0,0.162373143284853,0,0,1,4540.0,402.0,11.293532338308458,90.34825870646766,8.354322745678912,66.8345819654313
1,105,0,../static/images/invador3.png,1,80,2,40.0,left,70,2,1207.0,1.14951813898009,0,0,1,4540.0,404.0,11.237623762376238,22.475247524752476,7.684508062060978,15.369016124121956
1,106,0,../static/images/invador3.png,1,80,2,40.0,left,70,2,1115.0,0.736712049871174,0,0,1,4620.0,408.0,11.323529411764707,22.647058823529413,9.247128534670711,18.494257069341423
1,107,0,../static/images/invador3.png,1,80,2,40.0,right,74,2,1027.0,0.341854051593078,1,0,1,4700.0,412.0,11.407766990291263,22.815533980582526,10.515117761925845,21.03023552385169
1,108,0,../static/images/invador4.png,3,80,8,10.0,right,70,1,1624.0,3.02060660809334,0,0,1,4780.0,416.0,11.490384615384615,91.92307692307692,11.544028305859706,92.35222644687765
1,109,0,../static/images/invador3.png,1,80,2,40.0,right,74,2,984.0,0.148912075161736,0,0,1,4780.0,418.0,11.435406698564593,22.870813397129186,10.618476360746586,21.23695272149317
1,110,0,../static/images/invador1.png,4,20,8,2.5,right,70,1,977.0,0.117502916207797,0,0,1,4860.0,422.0,11.516587677725118,92.13270142180095,11.627898696748673,93.02318957398938
1,111,0,../static/images/invador2.png,2,20,2,10.0,right,70,1,649.0,-1.35424053191965,2,0,1,4860.0,424.0,11.462264150943396,22.92452830188679,10.695622374202651,21.391244748405303
1,112,0,../static/images/invador4.png,3,80,8,10.0,right,70,1,786.0,-0.739518420963979,2,0,1,4860.0,426.0,11.408450704225352,91.26760563380282,9.838092071057622,78.70473656846097
1,113,0,../static/images/invador3.png,1,80,2,40.0,right,74,2,1289.0,1.51745400101195,0,0,1,4860.0,428.0,11.355140186915888,22.710280373831775,9.049314963854295,18.09862992770859
1,114,0,../static/images/invador3.png,1,80,2,40.0,left,70,2,1000.0,0.220704438485026,0,0,1,4940.0,432.0,11.435185185185185,22.87037037037037,10.354601832948426,20.70920366589685
1,115,0,../static/images/invador3.png,1,80,2,40.0,left,70,2,760.0,-0.856181011364325,1,0,1,5020.0,436.0,11.513761467889909,23.027522935779817,11.413777568515727,22.827555137031453
1,116,0,../static/images/invador2.png,2,20,2,10.0,right,70,1,1027.0,0.341854051593078,0,0,1,5100.0,440.0,11.590909090909092,23.181818181818183,12.273246291734475,24.54649258346895
1,117,0,../static/images/invador3.png,1,80,2,40.0,right,74,2,1054.0,0.46300366470113,0,0,1,5100.0,442.0,11.538461538461538,23.076923076923077,11.289228696039462,22.578457392078924
1,118,0,../static/images/invador1.png,4,20,8,2.5,left,74,1,790.0,-0.721570330133156,0,0,1,5180.0,446.0,11.614349775784753,92.91479820627802,12.172181041832227,97.37744833465781
1,119,0,../static/images/invador3.png,1,80,2,40.0,right,74,2,1156.0,0.920679980887104,0,0,1,5180.0,448.0,11.5625,23.125,11.196266435505569,22.392532871011138
1,120,0,../static/images/invador2.png,2,20,2,10.0,left,74,1,931.0,-0.0889001283466624,2,0,1,5260.0,452.0,11.63716814159292,23.27433628318584,12.096746765266401,24.193493530532802
1,121,0,../static/images/invador4.png,3,80,8,10.0,right,70,1,1023.0,0.323905960762256,0,0,1,5260.0,454.0,11.58590308370044,92.68722466960352,11.126880163982165,89.01504131185732
1,122,0,../static/images/invador3.png,1,80,2,40.0,right,74,2,1139.0,0.844400594856109,0,0,1,5260.0,456.0,11.535087719298245,23.07017543859649,10.234773413552006,20.46954682710401
1,123,0,../static/images/invador1.png,4,20,8,2.5,right,70,1,851.0,-0.447861944963113,0,0,1,5340.0,460.0,11.608695652173912,92.8695652173913,11.316542732817,90.532341862536
1,124,0,../static/images/invador3.png,1,80,2,40.0,right,74,2,791.0,-0.717083307425451,1,0,1,5340.0,462.0,11.558441558441558,23.116883116883116,10.40922963024968,20.81845926049936
1,125,0,../static/images/invador3.png,1,80,2,40.0,right,74,2,1302.0,1.57578529621213,0,0,1,5420.0,466.0,11.630901287553648,23.261802575107296,11.45810532416773,22.91621064833546
1,126,0,../static/images/invador3.png,1,80,2,40.0,right,74,2,1299.0,1.56232422808901,0,0,1,5500.0,470.0,11.702127659574469,23.404255319148938,12.309216073021975,24.61843214604395
1,127,0,../static/images/invador3.png,1,80,2,40.0,right,74,2,1198.0,1.10913493461074,0,0,1,5580.0,474.0,11.772151898734178,23.544303797468356,12.99985035029204,25.99970070058408
1,128,0,../static/images/invador3.png,1,80,2,40.0,left,70,2,1135.0,0.826452504025286,0,0,1,5660.0,478.0,11.841004184100418,23.682008368200837,13.560265907941197,27.120531815882394
1,129,0,../static/images/invador3.png,1,80,2,40.0,right,74,2,1117.0,0.745686095286585,0,0,1,5740.0,482.0,11.908713692946058,23.817427385892117,14.015015415157453,28.030030830314907
1,130,0,../static/images/invador1.png,4,20,8,2.5,right,70,1,927.0,-0.106848219177485,0,0,1,5820.0,486.0,11.975308641975309,95.80246913580247,14.384022148626638,115.0721771890131
1,131,0,../static/images/invador2.png,2,20,2,10.0,left,74,1,711.0,-1.0760451240419,2,0,1,5820.0,488.0,11.926229508196721,23.852459016393443,13.23077136601604,26.46154273203208
1,132,0,../static/images/invador4.png,3,80,8,10.0,right,70,1,978.0,0.121989938915502,0,0,1,5820.0,490.0,11.877551020408163,95.0204081632653,12.169983411524692,97.35986729219753
1,133,0,../static/images/invador1.png,4,20,8,2.5,right,70,1,957.0,0.027762462053684,0,0,1,5820.0,492.0,11.829268292682928,94.63414634146342,11.194245002011822,89.55396001609458
1,134,0,../static/images/invador3.png,1,80,2,40.0,left,70,2,1270.0,1.43220056956555,0,0,1,5820.0,494.0,11.781376518218623,23.562753036437247,10.29673722039752,20.59347444079504
1,135,0,../static/images/invador2.png,2,20,2,10.0,right,70,1,882.0,-0.308764241024238,0,0,1,5900.0,498.0,11.847389558232932,23.694779116465863,11.366823297379558,22.733646594759115
1,136,0,../static/images/invador3.png,1,80,2,40.0,left,70,2,727.0,-1.00425276071861,1,0,1,5900.0,500.0,11.8,23.6,10.455478909276612,20.910957818553225
1,137,0,../static/images/invador3.png,1,80,2,40.0,left,70,2,1095.0,0.646971595717061,0,0,1,5980.0,504.0,11.865079365079366,23.73015873015873,11.495634326636594,22.99126865327319
1,138,0,../static/images/invador4.png,3,80,8,10.0,right,70,1,924.0,-0.120309287300602,0,0,1,6060.0,508.0,11.929133858267717,95.43307086614173,12.33966900236359,98.71735201890873
1,139,0,../static/images/invador3.png,1,80,2,40.0,left,70,2,1440.0,2.1949944298755,0,0,1,6060.0,510.0,11.882352941176471,23.764705882352942,11.3503259113221,22.7006518226442
1,140,0,../static/images/invador3.png,1,80,2,40.0,right,70,1,873.0,-0.349147445393589,2,0,1,6140.0,514.0,11.945525291828794,23.891050583657588,12.221758410202607,24.443516820405215
1,141,0,../static/images/invador3.png,1,80,2,40.0,right,74,2,758.0,-0.865155056779736,1,0,1,6140.0,516.0,11.89922480620155,23.7984496124031,11.241868897672237,22.483737795344474
1,142,0,../static/images/invador3.png,1,80,2,40.0,left,70,2,951.0,0.000840325807450209,0,0,1,6220.0,520.0,11.961538461538462,23.923076923076923,12.13375090784433,24.26750181568866
1,143,0,../static/images/invador1.png,4,20,8,2.5,left,74,1,971.0,0.0905807799615628,0,0,1,6300.0,524.0,12.022900763358779,96.18320610687023,12.857469047151794,102.85975237721435
1,144,0,../static/images/invador3.png,1,80,2,40.0,left,70,2,876.0,-0.335686377270472,1,0,1,6300.0,526.0,11.977186311787072,23.954372623574145,11.826610912493326,23.65322182498665
1,145,0,../static/images/invador2.png,2,20,2,10.0,right,70,1,1004.0,0.238652529315849,0,0,1,6380.0,530.0,12.037735849056604,24.07547169811321,12.608240131883683,25.216480263767366
1,146,0,../static/images/invador4.png,3,80,8,10.0,right,70,1,891.0,-0.268381036654888,0,0,1,6380.0,532.0,11.992481203007518,95.93984962406014,11.597364130081537,92.7789130406523
1,147,0,../static/images/invador2.png,2,20,2,10.0,left,74,1,880.0,-0.31773828643965,0,0,1,6380.0,534.0,11.94756554307116,23.89513108614232,10.667535941481757,21.335071882963515
1,148,0,../static/images/invador1.png,4,20,8,2.5,right,74,2,725.0,-1.01322680613402,1,0,1,6380.0,536.0,11.902985074626866,95.22388059701493,9.812257491134327,78.49805992907461
1,149,0,../static/images/invador3.png,1,80,2,40.0,left,70,2,1059.0,0.485438778239658,0,0,1,6400.0,546.0,11.72161172161172,23.44322344322344,6.949368323915244,13.898736647830487
1,150,0,../static/images/invador3.png,1,80,2,40.0,right,74,2,965.0,0.063658643715329,0,0,1,6480.0,550.0,11.781818181818181,23.563636363636363,8.650598996734244,17.301197993468488
1,151,0,../static/images/invador4.png,3,80,8,10.0,left,74,1,975.0,0.108528870792385,0,0,1,6560.0,554.0,11.84115523465704,94.72924187725631,10.031063545882155,80.24850836705724
1,152,0,../static/images/invador3.png,1,80,2,40.0,right,74,2,787.0,-0.735031398256273,1,0,1,6560.0,556.0,11.798561151079136,23.597122302158272,9.226814792287893,18.453629584575786
1,153,0,../static/images/invador3.png,1,80,2,40.0,right,74,2,903.0,-0.21453676416242,0,0,1,6640.0,560.0,11.857142857142858,23.714285714285715,10.498634164687655,20.99726832937531
1,154,0,../static/images/invador1.png,4,20,8,2.5,right,74,2,1448.0,2.23089061153715,1,0,1,6720.0,564.0,11.914893617021276,95.31914893617021,11.530652681969707,92.24522145575766
1,155,2,../static/images/invador1.png,4,20,8,2.5,right,74,2,1227.0,1.2392585931342,0,0,1,6740.0,574.0,11.742160278745645,93.93728222996516,8.03454279216158,64.27634233729265
1,156,2,../static/images/invador1.png,4,20,8,2.5,left,74,1,1074.0,0.552744118855243,0,0,1,6760.0,584.0,11.575342465753424,92.6027397260274,5.826733313389155,46.61386650711324
1,157,2,../static/images/invador1.png,4,20,8,2.5,right,70,1,1000.0,0.220704438485026,0,0,1,6760.0,586.0,11.535836177474403,92.28668941979522,5.359570187227613,42.8765614978209
1,158,2,../static/images/invador1.png,4,20,8,2.5,left,74,1,960.0,0.0412235301768009,2,0,1,6760.0,588.0,11.496598639455783,91.97278911564626,4.929862248167827,39.438897985342614
1,159,2,../static/images/invador1.png,4,20,8,2.5,left,74,1,862.0,-0.398504695178351,0,0,1,6760.0,590.0,11.457627118644067,91.66101694915254,4.534606495839552,36.276851966716414
1,160,2,../static/images/invador1.png,4,20,8,2.5,left,74,1,768.0,-0.82028482970268,0,0,1,6760.0,592.0,11.41891891891892,91.35135135135135,4.171040697892183,33.36832558313746
1,161,2,../static/images/invador1.png,4,20,8,2.5,right,74,2,893.0,-0.259406991239476,0,0,1,6760.0,594.0,11.38047138047138,91.04377104377105,3.83662408622115,30.6929926897692
1,162,2,../static/images/invador1.png,4,20,8,2.5,left,74,1,716.0,-1.05361001050337,2,0,1,6780.0,604.0,11.225165562913908,89.80132450331126,3.175728338657073,25.405826709256583
1,163,2,../static/images/invador1.png,4,20,8,2.5,right,74,2,941.0,-0.0440299012696061,0,0,1,6780.0,606.0,11.188118811881187,89.5049504950495,2.9211117123704815,23.368893698963852
1,164,2,../static/images/invador1.png,4,20,8,2.5,left,74,1,748.0,-0.910025283856793,2,0,1,6800.0,616.0,11.03896103896104,88.31168831168831,2.597578062885311,20.78062450308249
1,165,2,../static/images/invador1.png,4,20,8,2.5,right,74,2,941.0,-0.0440299012696061,0,0,1,6800.0,618.0,11.003236245954692,88.02588996763754,2.3893151095221152,19.114520876176922
1,166,2,../static/images/invador1.png,4,20,8,2.5,right,70,1,1004.0,0.238652529315849,2,0,1,6820.0,628.0,10.859872611464969,86.87898089171975,2.261746061731584,18.09396849385267
1,167,2,../static/images/invador1.png,4,20,8,2.5,right,70,1,626.0,-1.45744205419688,2,0,1,6820.0,630.0,10.825396825396826,86.60317460317461,2.0804087147220462,16.64326971777637
1,168,2,../static/images/invador1.png,4,20,8,2.5,left,70,2,884.0,-0.299790195608827,0,0,1,6820.0,632.0,10.791139240506329,86.32911392405063,1.913610238356228,15.308881906849823
1,169,2,../static/images/invador1.png,4,20,8,2.5,left,70,2,930.0,-0.093387151054368,0,0,1,6840.0,642.0,10.654205607476635,85.23364485981308,1.9613362471774123,15.690689977419298
1,170,2,../static/images/invador1.png,4,20,8,2.5,right,74,2,661.0,-1.30039625942718,0,0,1,6860.0,652.0,10.521472392638037,84.1717791411043,1.991475441304738,15.931803530437904
1,171,2,../static/images/invador1.png,4,20,8,2.5,right,74,2,893.0,-0.259406991239476,0,0,1,6880.0,662.0,10.392749244712991,83.14199395770393,2.0105084810472396,16.084067848377916
1,172,2,../static/images/invador1.png,4,20,8,2.5,left,70,2,827.0,-0.555550489948048,0,0,1,6900.0,672.0,10.267857142857142,82.14285714285714,2.0225279332034334,16.180223465627467
1,173,2,../static/images/invador1.png,4,20,8,2.5,right,74,2,713.0,-1.06707107862649,0,0,1,6920.0,682.0,10.146627565982405,81.17302052785924,2.0301182725338585,16.240946180270868
1,174,2,../static/images/invador1.png,4,20,8,2.5,right,74,2,1062.0,0.498899846362775,0,0,1,6940.0,692.0,10.028901734104046,80.23121387283237,2.034911606739303,16.279292853914423
1,175,2,../static/images/invador1.png,4,20,8,2.5,left,70,2,793.0,-0.708109262010039,0,0,1,6960.0,702.0,9.914529914529915,79.31623931623932,2.037938619341096,16.30350895472877
1,176,2,../static/images/invador1.png,4,20,8,2.5,right,74,2,648.0,-1.35872755462736,0,0,1,6980.0,712.0,9.803370786516854,78.42696629213484,2.039850191724472,16.318801533795774
1,177,2,../static/images/invador1.png,4,20,8,2.5,right,74,2,1460.0,2.28473488402962,0,0,1,7000.0,722.0,9.695290858725762,77.5623268698061,2.041057358478492,16.328458867827937
1,178,2,../static/images/invador1.png,4,20,8,2.5,right,74,2,732.0,-0.981817647180083,0,0,1,7020.0,732.0,9.59016393442623,76.72131147540983,2.0418196898370553,16.334557518696442
1,179,2,../static/images/invador1.png,4,20,8,2.5,left,70,2,674.0,-1.24206496422701,1,0,1,7040.0,742.0,9.487870619946092,75.90296495956873,2.042301105596986,16.338408844775888
1,180,2,../static/images/invador1.png,4,20,8,2.5,left,70,2,817.0,-0.600420717025104,1,0,1,7060.0,752.0,9.388297872340425,75.1063829787234,2.042605121864067,16.340840974912535
1,181,2,../static/images/invador1.png,4,20,8,2.5,left,70,2,802.0,-0.667726057640689,0,0,1,7080.0,762.0,9.291338582677165,74.33070866141732,2.042797109535312,16.342376876282497
1,182,2,../static/images/invador1.png,4,20,8,2.5,left,70,2,752.0,-0.89207719302597,0,0,1,7100.0,772.0,9.196891191709845,73.57512953367876,2.0429183506329163,16.34334680506333
1,183,1,../static/images/invador4.png,3,80,8,10.0,right,74,2,865.0,-0.385043627055234,1,0,1,7120.0,782.0,9.104859335038363,72.8388746803069,2.042994914943805,16.34395931955044
1,184,1,../static/images/invador1.png,4,20,8,2.5,left,70,2,1106.0,0.696328845501823,1,0,1,7200.0,792.0,9.090909090909092,72.72727272727273,4.301691000745754,34.41352800596603
1,185,1,../static/images/invador1.png,4,20,8,2.5,right,70,1,898.0,-0.236971877700948,0,0,1,7220.0,802.0,9.002493765586035,72.01995012468828,3.46942023465386,27.75536187723088
1,186,1,../static/images/invador2.png,2,20,2,10.0,right,74,2,1039.0,0.395698324085546,0,0,1,7220.0,804.0,8.980099502487562,17.960199004975124,3.191256619534453,6.382513239068906
1,187,1,../static/images/invador1.png,4,20,8,2.5,right,74,2,948.0,-0.0126207423156667,1,0,1,7240.0,808.0,8.96039603960396,71.68316831683168,3.3424294874838405,26.739435899870724
1,188,1,../static/images/invador1.png,4,20,8,2.5,right,70,1,820.0,-0.586959648901987,0,0,1,7260.0,818.0,8.875305623471883,71.00244498777506,2.863642176082175,22.9091374086574
1,189,1,../static/images/invador1.png,4,20,8,2.5,right,70,1,878.0,-0.326712331855061,0,0,1,7260.0,820.0,8.853658536585366,70.82926829268293,2.634047314049875,21.072378512399
1,190,1,../static/images/invador1.png,4,20,8,2.5,right,70,1,947.0,-0.0171077650233723,0,0,1,7260.0,822.0,8.832116788321168,70.65693430656934,2.4228604085394854,19.382883268315883
1,191,1,../static/images/invador4.png,3,80,8,10.0,right,74,2,1090.0,0.624536482178533,0,0,1,7260.0,824.0,8.810679611650485,70.48543689320388,2.22860558652705,17.8288446922164
1,192,1,../static/images/invador3.png,1,80,2,40.0,left,70,2,1140.0,0.848887617563814,0,0,1,7340.0,834.0,8.80095923261391,17.60191846522782,4.418904993726191,8.837809987452381
1,193,1,../static/images/invador2.png,2,20,2,10.0,left,74,1,664.0,-1.28693519130407,0,0,1,7420.0,838.0,8.854415274463006,17.708830548926013,6.597253159478457,13.194506318956915
1,194,1,../static/images/invador1.png,4,20,8,2.5,left,74,1,872.0,-0.353634468101295,2,0,1,7420.0,840.0,8.833333333333334,70.66666666666667,6.068312972190495,48.54650377752396
1,195,1,../static/images/invador1.png,4,20,8,2.5,left,74,1,1017.0,0.296983824516022,0,0,1,7420.0,842.0,8.812351543942993,70.49881235154395,5.581780998588597,44.654247988708775
1,196,1,../static/images/invador1.png,4,20,8,2.5,left,74,1,902.0,-0.219023786870126,0,0,1,7420.0,844.0,8.791469194312796,70.33175355450237,5.134257125330526,41.07405700264421
1,197,1,../static/images/invador1.png,4,20,8,2.5,left,74,1,846.0,-0.470297058501641,0,0,1,7420.0,846.0,8.770685579196217,70.16548463356973,4.722613845952178,37.78091076761742
1,198,1,../static/images/invador4.png,3,80,8,10.0,left,70,2,1011.0,0.270061688269788,0,0,1,7420.0,848.0,8.75,70.0,4.343974404387358,34.75179523509886
1,199,1,../static/images/invador2.png,2,20,2,10.0,right,74,2,628.0,-1.44846800878147,1,0,1,7500.0,858.0,8.741258741258742,17.482517482517483,5.754770133659744,11.509540267319489
1,200,1,../static/images/invador3.png,1,80,2,40.0,left,70,2,683.0,-1.20168175985766,1,0,1,7520.0,862.0,8.723897911832946,17.447795823665892,5.422593914361689,10.845187828723377
1,201,1,../static/images/invador1.png,4,20,8,2.5,right,74,2,1079.0,0.575179232393771,0,0,1,7600.0,866.0,8.775981524249422,70.20785219399538,7.411697076724507,59.293576613796056
1,202,1,../static/images/invador1.png,4,20,8,2.5,right,70,1,849.0,-0.456835990378524,0,0,1,7620.0,876.0,8.698630136986301,69.58904109589041,5.433403378777104,43.46722703021683
1,203,1,../static/images/invador3.png,1,80,2,40.0,right,70,1,807.0,-0.645290944102161,2,0,1,7620.0,878.0,8.67881548974943,17.35763097949886,4.9977758029803,9.9955516059606
1,204,1,../static/images/invador1.png,4,20,8,2.5,right,70,1,861.0,-0.402991717886057,0,0,1,7620.0,880.0,8.659090909090908,69.27272727272727,4.597075025649417,36.77660020519534
1,205,1,../static/images/invador1.png,4,20,8,2.5,right,70,1,787.0,-0.735031398256273,0,0,1,7620.0,882.0,8.639455782312925,69.1156462585034,4.2285007620484665,33.82800609638773
1,206,1,../static/images/invador1.png,4,20,8,2.5,left,70,2,947.0,-0.0171077650233723,1,0,1,7620.0,884.0,8.619909502262443,68.95927601809954,3.8894772425687285,31.115817940549828
1,207,1,../static/images/invador4.png,3,80,8,10.0,right,74,2,944.0,-0.0305688331464892,0,0,1,7640.0,894.0,8.54586129753915,68.3668903803132,3.209105350034032,25.672842800272257
1,208,1,../static/images/invador1.png,4,20,8,2.5,left,74,1,789.0,-0.726057352840862,0,0,1,7720.0,904.0,8.539823008849558,68.31858407079646,5.038095105031201,40.30476084024961
1,209,1,../static/images/invador2.png,2,20,2,10.0,left,70,2,1172.0,0.992472344210395,0,0,1,7720.0,906.0,8.520971302428256,17.041942604856512,4.634161694563072,9.268323389126143
1,210,1,../static/images/invador1.png,4,20,8,2.5,right,70,1,856.0,-0.425426831424585,0,0,1,7740.0,910.0,8.505494505494505,68.04395604395604,4.513275590653377,36.106204725227016
1,211,1,../static/images/invador4.png,3,80,8,10.0,right,74,2,815.0,-0.609394762440515,0,0,1,7740.0,912.0,8.486842105263158,67.89473684210526,4.151420015538369,33.21136012430695
1,212,1,../static/images/invador1.png,4,20,8,2.5,left,74,1,1120.0,0.759147163409702,0,0,1,7820.0,922.0,8.481561822125814,67.85249457700651,5.633171151282403,45.06536921025923
1,213,1,../static/images/invador1.png,4,20,8,2.5,left,74,1,907.0,-0.196588673331598,0,0,1,7820.0,924.0,8.463203463203463,67.7056277056277,5.181527030349502,41.45221624279601
1,214,1,../static/images/invador3.png,1,80,2,40.0,right,74,2,927.0,-0.106848219177485,0,0,1,7820.0,926.0,8.444924406047516,16.889848812095032,4.766093847535676,9.532187695071352
1,215,1,../static/images/invador2.png,2,20,2,10.0,left,70,2,1183.0,1.04182959399516,0,0,1,7900.0,930.0,8.494623655913978,16.989247311827956,6.8789797425931996,13.757959485186399
1,216,1,../static/images/invador1.png,4,20,8,2.5,right,70,1,825.0,-0.564524535363459,0,0,1,7920.0,934.0,8.4796573875803,67.8372591006424,6.334834409280855,50.67867527424684
1,217,1,../static/images/invador1.png,4,20,8,2.5,right,70,1,801.0,-0.672213080348394,0,0,1,7920.0,936.0,8.461538461538462,67.6923076923077,5.826933860691307,46.615470885530456
1,218,1,../static/images/invador4.png,3,80,8,10.0,right,74,2,978.0,0.121989938915502,1,0,1,7920.0,938.0,8.443496801705757,67.54797441364606,5.3597546554852,42.8780372438816
1,219,1,../static/images/invador3.png,1,80,2,40.0,right,74,2,1075.0,0.557231141562948,0,0,1,8000.0,948.0,8.438818565400844,16.877637130801688,6.396240035181271,12.792480070362542
1,220,1,../static/images/invador1.png,4,20,8,2.5,right,70,1,811.0,-0.627342853271338,0,0,1,8080.0,952.0,8.487394957983193,67.89915966386555,8.201762747818726,65.61410198254981
1,221,1,../static/images/invador1.png,4,20,8,2.5,left,74,1,771.0,-0.806823761579563,0,0,1,8080.0,954.0,8.469601677148846,67.75681341719077,7.544179687255135,60.35343749804108
1,222,1,../static/images/invador1.png,4,20,8,2.5,left,74,1,668.0,-1.26898710047324,0,0,1,8080.0,956.0,8.451882845188285,67.61506276150628,6.939318888336478,55.514551106691826
1,223,1,../static/images/invador2.png,2,20,2,10.0,left,70,2,1190.0,1.0732387529491,0,0,1,8080.0,958.0,8.434237995824635,16.86847599164927,6.382953300459332,12.765906600918663
1,224,1,../static/images/invador2.png,2,20,2,10.0,right,74,2,941.0,-0.0440299012696061,1,0,1,8100.0,962.0,8.41995841995842,16.83991683991684,5.932333484658374,11.864666969316747
1,225,1,../static/images/invador1.png,4,20,8,2.5,left,74,1,752.0,-0.89207719302597,2,0,1,8120.0,966.0,8.405797101449275,67.2463768115942,5.566677791520652,44.533422332165216
1,226,1,../static/images/invador1.png,4,20,8,2.5,left,74,1,764.0,-0.838232920533503,0,0,1,8120.0,968.0,8.388429752066116,67.10743801652893,5.1203648302864275,40.96291864229142
1,227,1,../static/images/invador1.png,4,20,8,2.5,left,74,1,824.0,-0.569011558071165,0,0,1,8120.0,970.0,8.371134020618557,66.96907216494846,4.70983537706646,37.67868301653168
1,228,1,../static/images/invador3.png,1,80,2,40.0,right,74,2,1253.0,1.35592118353455,0,0,1,8120.0,972.0,8.353909465020577,16.707818930041153,4.332220459733509,8.664440919467019
1,229,1,../static/images/invador4.png,3,80,8,10.0,right,74,2,712.0,-1.0715581013342,1,0,1,8200.0,976.0,8.401639344262295,67.21311475409836,6.5269129475082535,52.21530358006603
1,230,1,../static/images/invador1.png,4,20,8,2.5,left,74,1,837.0,-0.510680262870992,0,0,1,8280.0,986.0,8.397565922920892,67.18052738336714,7.133305865940316,57.06644692752253
1,231,1,../static/images/invador2.png,2,20,2,10.0,left,70,2,824.0,-0.569011558071165,1,0,1,8280.0,988.0,8.380566801619434,16.761133603238868,6.561387212903349,13.122774425806698
1,232,1,../static/images/invador1.png,4,20,8,2.5,left,74,1,723.0,-1.02220085154943,0,0,1,8300.0,992.0,8.366935483870968,66.93548387096774,6.077123779372825,48.6169902349826
1,233,1,../static/images/invador4.png,3,80,8,10.0,left,70,2,1111.0,0.718763959040351,1,0,1,8300.0,994.0,8.35010060362173,66.80080482897384,5.589885392072905,44.71908313658324
1,234,1,../static/images/invador3.png,1,80,2,40.0,right,74,2,994.0,0.193782302238792,0,0,1,8380.0,1004.0,8.346613545816734,16.693227091633467,6.54156865402028,13.08313730804056
1,235,1,../static/images/invador1.png,4,20,8,2.5,right,70,1,791.0,-0.717083307425451,0,0,1,8460.0,1008.0,8.392857142857142,67.14285714285714,8.319689734140603,66.55751787312482
1,236,1,../static/images/invador1.png,4,20,8,2.5,right,70,1,955.0,0.0187884166382727,0,0,1,8460.0,1010.0,8.376237623762377,67.00990099009901,7.652651780650585,61.22121424520468
1,237,1,../static/images/invador1.png,4,20,8,2.5,left,70,2,668.0,-1.26898710047324,1,0,1,8460.0,1012.0,8.359683794466402,66.87747035573122,7.039094142606742,56.312753140853935
1,238,1,../static/images/invador1.png,4,20,8,2.5,right,74,2,891.0,-0.268381036654888,1,0,1,8480.0,1022.0,8.297455968688846,66.37964774951077,5.198102911774689,41.58482329419751
1,239,1,../static/images/invador3.png,1,80,2,40.0,left,70,2,695.0,-1.14783748736519,0,0,1,8500.0,1032.0,8.236434108527131,16.472868217054263,4.035508480284723,8.071016960569446
1,240,1,../static/images/invador2.png,2,20,2,10.0,right,74,2,911.0,-0.178640582500775,0,0,1,8580.0,1036.0,8.281853281853282,16.563706563706564,6.286145851381405,12.57229170276281
1,241,1,../static/images/invador1.png,4,20,8,2.5,right,74,2,795.0,-0.699135216594628,1,0,1,8600.0,1040.0,8.26923076923077,66.15384615384616,5.853779027769776,46.83023222215821
1,242,1,../static/images/invador4.png,3,80,8,10.0,right,74,2,827.0,-0.555550489948048,1,0,1,8620.0,1050.0,8.209523809523809,65.67619047619047,4.449570963880767,35.596567711046134
1,243,1,../static/images/invador1.png,4,20,8,2.5,right,74,2,1194.0,1.09118684377992,1,0,1,8700.0,1060.0,8.20754716981132,65.66037735849056,5.8214548467618545,46.571638774094836
1,244,1,../static/images/invador1.png,4,20,8,2.5,right,74,2,706.0,-1.09848023758043,1,0,1,8720.0,1070.0,8.149532710280374,65.19626168224299,4.429158094871446,35.43326475897157
1,245,1,../static/images/invador2.png,2,20,2,10.0,left,74,1,980.0,0.130963984330913,2,0,1,8740.0,1080.0,8.092592592592593,16.185185185185187,3.549916290988555,7.09983258197711
1,246,1,../static/images/invador1.png,4,20,8,2.5,right,70,1,788.0,-0.730544375548568,0,0,1,8740.0,1082.0,8.077634011090574,64.62107208872459,3.2652988384788935,26.122390707831148
1,247,1,../static/images/invador1.png,4,20,8,2.5,right,70,1,821.0,-0.582472626194282,0,0,1,8740.0,1084.0,8.062730627306273,64.50184501845018,3.003500823846887,24.028006590775096
1,248,1,../static/images/invador1.png,4,20,8,2.5,left,74,1,916.0,-0.156205468962247,0,0,1,8740.0,1086.0,8.047882136279926,64.3830570902394,2.7626926799298035,22.101541439438428
1,249,1,../static/images/invador1.png,4,20,8,2.5,right,70,1,810.0,-0.631829875979044,0,0,1,8740.0,1088.0,8.033088235294118,64.26470588235294,2.541191526613948,20.329532212911584
1,250,1,../static/images/invador3.png,1,80,2,40.0,left,70,2,989.0,0.171347188700264,0,0,1,8740.0,1090.0,8.01834862385321,16.03669724770642,2.3374494100800987,4.674898820160197
1,251,1,../static/images/invador4.png,3,80,8,10.0,right,74,2,926.0,-0.111335241885191,0,0,1,8820.0,1094.0,8.062157221206581,64.49725776965265,4.908254900889504,39.26603920711603
1,252,1,../static/images/invador1.png,4,20,8,2.5,left,74,1,763.0,-0.842719943241208,0,0,1,8900.0,1104.0,8.06159420289855,64.4927536231884,6.111115863093388,48.8889269047471
1,253,1,../static/images/invador1.png,4,20,8,2.5,right,70,1,863.0,-0.394017672470645,0,0,1,8900.0,1106.0,8.047016274864376,64.376130198915,5.6211521325794305,44.969217060635444
1,254,1,../static/images/invador1.png,4,20,8,2.5,right,70,1,839.0,-0.50170621745558,0,0,1,8900.0,1108.0,8.032490974729242,64.25992779783394,5.170471646336616,41.36377317069293
1,255,1,../static/images/invador4.png,3,80,8,10.0,left,70,2,1314.0,1.62962956870459,0,0,1,8900.0,1110.0,8.018018018018019,64.14414414414415,4.75592483801062,38.04739870408496
1,256,1,../static/images/invador1.png,4,20,8,2.5,left,74,1,801.0,-0.672213080348394,0,0,1,8980.0,1120.0,8.017857142857142,64.14285714285714,6.014918727612485,48.11934982089988
1,257,1,../static/images/invador2.png,2,20,2,10.0,left,70,2,966.0,0.0681456664230347,1,0,1,8980.0,1122.0,8.003565062388592,16.007130124777184,5.532667681397255,11.06533536279451
1,258,1,../static/images/invador3.png,1,80,2,40.0,left,70,2,1030.0,0.355315119716195,0,0,1,9000.0,1126.0,7.992895204262878,15.985790408525755,5.242368759404231,10.484737518808462
1,259,1,../static/images/invador4.png,3,80,8,10.0,left,70,2,1347.0,1.77770131805888,0,0,1,9080.0,1130.0,8.035398230088495,64.28318584070796,7.265453277304173,58.12362621843339
1,260,1,../static/images/invador2.png,2,20,2,10.0,right,74,2,762.0,-0.847206965948914,1,0,1,9160.0,1140.0,8.035087719298245,16.07017543859649,7.59969748175667,15.19939496351334
1,261,1,../static/images/invador1.png,4,20,8,2.5,left,70,2,779.0,-0.770927579917918,1,0,1,9180.0,1144.0,8.024475524475525,64.1958041958042,6.919661208346602,55.357289666772814
1,262,1,../static/images/invador1.png,4,20,8,2.5,right,70,1,900.0,-0.227997832285537,2,0,1,9200.0,1154.0,7.972270363951473,63.77816291161179,5.122680464355105,40.98144371484084
1,263,1,../static/images/invador1.png,4,20,8,2.5,left,70,2,748.0,-0.910025283856793,1,0,1,9200.0,1156.0,7.958477508650519,63.667820069204154,4.711965353272937,37.6957228261835
1,264,1,../static/images/invador3.png,1,80,2,40.0,left,70,2,1097.0,0.655945641132472,0,0,1,9220.0,1166.0,7.9073756432247,15.8147512864494,3.7285103756838525,7.457020751367705
1,265,1,../static/images/invador1.png,4,20,8,2.5,right,70,1,844.0,-0.479271103917052,2,0,1,9300.0,1170.0,7.948717948717949,63.58974358974359,6.037032073439198,48.29625658751358
1,266,1,../static/images/invador3.png,1,80,2,40.0,left,70,2,1050.0,0.445055573870308,0,0,1,9300.0,1172.0,7.935153583617748,15.870307167235495,5.553008071571002,11.106016143142003
1,267,1,../static/images/invador1.png,4,20,8,2.5,right,70,1,791.0,-0.717083307425451,0,0,1,9380.0,1176.0,7.976190476190476,63.80952380952381,7.517521715094175,60.1401737207534
1,268,1,../static/images/invador1.png,4,20,8,2.5,left,74,1,641.0,-1.3901367135813,0,0,1,9380.0,1178.0,7.962648556876061,63.70118845500849,6.914798240975202,55.318385927801614
1,269,1,../static/images/invador2.png,2,20,2,10.0,right,74,2,951.0,0.000840325807450209,1,0,1,9380.0,1180.0,7.9491525423728815,15.898305084745763,6.360398616127542,12.720797232255084
1,270,1,../static/images/invador1.png,4,20,8,2.5,right,70,1,847.0,-0.465810035793935,0,0,1,9400.0,1184.0,7.9391891891891895,63.513513513513516,5.914031473864231,47.31225179091385
1,271,1,../static/images/invador1.png,4,20,8,2.5,left,74,1,702.0,-1.11642832841125,0,0,1,9400.0,1186.0,7.925801011804385,63.40640809443508,5.439869146029605,43.51895316823684
1,272,1,../static/images/invador4.png,3,80,8,10.0,right,74,2,1207.0,1.14951813898009,0,0,1,9400.0,1188.0,7.912457912457913,63.2996632996633,5.003723172036033,40.02978537628827
1,273,1,../static/images/invador4.png,3,80,8,10.0,left,70,2,1276.0,1.45912270581178,0,0,1,9480.0,1198.0,7.913188647746244,63.30550918196995,6.1714045155106865,49.37123612408549
1,274,1,../static/images/invador1.png,4,20,8,2.5,left,74,1,844.0,-0.479271103917052,0,0,1,9560.0,1208.0,7.913907284768212,63.311258278145694,6.908800655667642,55.27040524534114
1,275,1,../static/images/invador1.png,4,20,8,2.5,left,74,1,654.0,-1.33180541838112,0,0,1,9560.0,1210.0,7.900826446280992,63.20661157024794,6.354881892145017,50.83905513716014
1,276,1,../static/images/invador1.png,4,20,8,2.5,left,74,1,649.0,-1.35424053191965,0,0,1,9560.0,1212.0,7.887788778877888,63.102310231023104,5.845374020161248,46.762992161289986
1,277,1,../static/images/invador3.png,1,80,2,40.0,right,74,2,1181.0,1.03285554857975,0,0,1,9560.0,1214.0,7.874794069192752,15.749588138385503,5.3767163600333925,10.753432720066785
1,278,1,../static/images/invador2.png,2,20,2,10.0,left,70,2,1178.0,1.01939448045663,0,0,1,9640.0,1218.0,7.914614121510673,15.829228243021346,7.3744697104633055,14.748939420926611
1,279,1,../static/images/invador1.png,4,20,8,2.5,left,74,1,775.0,-0.788875670748741,0,0,1,9660.0,1222.0,7.905073649754501,63.240589198036005,6.736900011571987,53.8952000925759
1,280,1,../static/images/invador1.png,4,20,8,2.5,right,70,1,796.0,-0.694648193886922,0,0,1,9660.0,1224.0,7.892156862745098,63.13725490196079,6.196763523291028,49.574108186328225
1,281,1,../static/images/invador1.png,4,20,8,2.5,left,74,1,598.0,-1.58307869001264,0,0,1,9660.0,1226.0,7.879282218597064,63.03425774877651,5.699932921318512,45.599463370548094
1,282,1,../static/images/invador4.png,3,80,8,10.0,left,70,2,1156.0,0.920679980887104,1,0,1,9660.0,1228.0,7.866449511400652,62.931596091205215,5.242936120672866,41.943488965382926
1,283,1,../static/images/invador3.png,1,80,2,40.0,left,70,2,1193.0,1.08669982107221,0,0,1,9740.0,1238.0,7.867528271405493,15.735056542810986,6.322468593040151,12.644937186080302
2,0,1,../static/images/invador2.png,1,80,2,40.0,left,70,2,1390.0,1.78207659425499,0,0,2,0.0,2.0,0.0,0.0,0.10721724601215027,0.21443449202430054
2,1,1,../static/images/invador3.png,3,80,8,10.0,left,70,2,1376.0,1.71338659719061,0,0,2,80.0,6.0,13.333333333333334,106.66666666666667,1.0708505382362121,8.566804305889697
2,2,1,../static/images/invador1.png,4,20,8,2.5,right,74,2,1372.0,1.69376088374365,0,0,2,160.0,16.0,10.0,80.0,1.070847447456643,8.566779579653144
2,3,1,../static/images/invador1.png,4,20,8,2.5,left,74,1,1348.0,1.57600660306187,0,0,2,180.0,26.0,6.923076923076923,55.38461538461539,0.26771186194664853,2.1416948955731883
2,4,1,../static/images/invador1.png,4,20,8,2.5,left,74,1,1272.0,1.20311804756956,0,0,2,180.0,28.0,6.428571428571429,51.42857142857143,0.004088793242550517,0.03271034594040414
2,5,1,../static/images/invador1.png,4,20,8,2.5,right,70,1,1112.0,0.418089509691022,1,0,2,180.0,30.0,6.0,48.0,6.244859700560632e-5,0.0004995887760448506
2,6,1,../static/images/invador4.png,2,20,2,10.0,left,74,1,22.0,-4.92991740460653,0,0,2,180.0,32.0,5.625,11.25,9.53784414282582e-7,1.907568828565164e-6
2,7,1,../static/images/invador1.png,4,20,8,2.5,right,74,2,1406.0,1.86057944804284,0,0,2,180.0,34.0,5.294117647058823,42.35294117647059,1.4567256152235077e-8,1.1653804921788062e-7
2,8,1,../static/images/invador3.png,3,80,8,10.0,right,74,2,1432.0,1.9881465854481,0,0,2,200.0,44.0,4.545454545454546,36.36363636363637,0.2677118618366647,2.1416948946933174
2,9,1,../static/images/invador1.png,4,20,8,2.5,left,70,2,834.0,-0.945897574872942,1,0,2,280.0,54.0,5.185185185185185,41.48148148148148,1.0708474473741547,8.566779578993238
2,10,1,../static/images/invador4.png,2,20,2,10.0,left,70,2,1330.0,1.48769089255053,0,0,2,300.0,64.0,4.6875,9.375,0.26771186194664853,0.5354237238932971
2,11,1,../static/images/invador2.png,1,80,2,40.0,left,70,2,1478.0,2.21384229008818,0,0,2,320.0,68.0,4.705882352941177,9.411764705882353,0.2677195795110889,0.5354391590221778
2,12,1,../static/images/invador1.png,4,20,8,2.5,right,70,1,1460.0,2.12552657957685,0,0,2,400.0,72.0,5.555555555555555,44.44444444444444,1.070855165243567,8.566841321948536
2,13,1,../static/images/invador1.png,4,20,8,2.5,right,74,2,914.0,-0.553383305933672,1,0,2,400.0,74.0,5.405405405405405,43.24324324324324,0.01635529083978652,0.13084232671829216
2,14,1,../static/images/invador1.png,4,20,8,2.5,left,74,1,1194.0,0.820416635353773,0,0,2,420.0,84.0,5.0,40.0,0.2677118618383445,2.141694894706756
2,15,1,../static/images/invador1.png,4,20,8,2.5,right,70,1,1082.0,0.270896658838795,0,0,2,420.0,86.0,4.883720930232558,39.06976744186046,0.004088793240896377,0.032710345927171015
2,16,1,../static/images/invador4.png,2,20,2,10.0,left,70,2,1332.0,1.49750374927401,0,0,2,420.0,88.0,4.7727272727272725,9.545454545454545,6.244859698034246e-5,0.00012489719396068492
2,17,1,../static/images/invador1.png,4,20,8,2.5,right,70,1,1178.0,0.741913781565919,0,0,2,440.0,92.0,4.782608695652174,38.26086956521739,0.26771186363695076,2.141694909095606
2,18,1,../static/images/invador3.png,3,80,8,10.0,right,74,2,1246.0,1.0755509101643,0,0,2,440.0,94.0,4.680851063829787,37.4468085106383,0.004088793268366692,0.032710346146933536
2,19,1,../static/images/invador2.png,1,80,2,40.0,left,74,1,1618.0,2.90074226073191,0,0,2,520.0,104.0,5.0,10.0,1.0708474473470788,2.1416948946941576
2,20,1,../static/images/invador1.png,4,20,8,2.5,right,70,1,1270.0,1.19330519084608,0,0,2,520.0,106.0,4.90566037735849,39.24528301886792,0.0163551729634893,0.1308413837079144
2,21,1,../static/images/invador1.png,4,20,8,2.5,left,74,1,1000.0,-0.131430466823957,0,0,2,520.0,108.0,4.814814814814815,38.51851851851852,0.0002497943879199004,0.0019983551033592034
2,22,1,../static/images/invador1.png,4,20,8,2.5,left,74,1,1162.0,0.663410927778065,0,0,2,520.0,110.0,4.7272727272727275,37.81818181818182,3.8151376555644535e-6,3.052110124451563e-5
2,23,1,../static/images/invador2.png,1,80,2,40.0,right,70,1,1770.0,3.64651937171652,0,0,2,520.0,112.0,4.642857142857143,9.285714285714286,5.8269024585024545e-8,1.1653804917004909e-7
2,24,1,../static/images/invador3.png,3,80,8,10.0,left,74,1,862.0,-0.808517580744198,2,0,2,520.0,114.0,4.56140350877193,36.49122807017544,8.899493367265826e-10,7.119594693812661e-9
2,25,1,../static/images/invador1.png,4,20,8,2.5,right,70,1,1390.0,1.78207659425499,0,0,2,520.0,116.0,4.482758620689655,35.86206896551724,1.3592295865265525e-11,1.087383669221242e-10
2,26,1,../static/images/invador4.png,2,20,2,10.0,left,74,1,1364.0,1.65450945684972,0,0,2,520.0,118.0,4.406779661016949,8.813559322033898,2.0759665664616908e-13,4.1519331329233817e-13
2,27,1,../static/images/invador1.png,4,20,8,2.5,left,74,1,1172.0,0.712475211395474,0,0,2,520.0,120.0,4.333333333333333,34.666666666666664,3.1706469810444736e-15,2.536517584835579e-14
2,28,1,../static/images/invador4.png,2,20,2,10.0,right,70,1,1282.0,1.25218233118697,0,0,2,520.0,122.0,4.262295081967213,8.524590163934427,4.842564635104372e-17,9.685129270208744e-17
2,29,1,../static/images/invador1.png,4,20,8,2.5,left,74,1,1052.0,0.123703807986569,0,0,2,520.0,124.0,4.193548387096774,33.54838709677419,7.396103188201199e-19,5.9168825505609594e-18
2,30,1,../static/images/invador3.png,3,80,8,10.0,left,70,2,852.0,-0.857581864361606,1,0,2,520.0,126.0,4.126984126984127,33.01587301587302,1.1296151211689702e-20,9.036920969351762e-20
2,31,1,../static/images/invador1.png,4,20,8,2.5,right,70,1,746.0,-1.37766327070614,2,0,2,600.0,136.0,4.411764705882353,35.294117647058826,1.0708474473466587,8.56677957877327
2,32,1,../static/images/invador2.png,1,80,2,40.0,right,70,1,1494.0,2.29234514387604,0,0,2,600.0,138.0,4.3478260869565215,8.695652173913043,0.016355172963482885,0.03271034592696577
2,33,1,../static/images/invador1.png,4,20,8,2.5,right,70,1,1168.0,0.692849497948511,0,0,2,600.0,140.0,4.285714285714286,34.285714285714285,0.00024979438791980247,0.0019983551033584197
2,34,1,../static/images/invador1.png,4,20,8,2.5,right,74,2,952.0,-0.366939028187519,1,0,2,600.0,142.0,4.225352112676056,33.80281690140845,3.815137655562958e-6,3.052110124450366e-5
2,35,1,../static/images/invador1.png,4,20,8,2.5,right,70,1,962.0,-0.31787474457011,0,0,2,620.0,152.0,4.078947368421052,32.63157894736842,0.267711861836665,2.14169489469332
2,36,1,../static/images/invador4.png,2,20,2,10.0,right,70,1,1198.0,0.840042348800737,0,0,2,620.0,154.0,4.025974025974026,8.051948051948052,0.004088793240870726,0.008177586481741453
2,37,1,../static/images/invador1.png,4,20,8,2.5,left,74,1,1006.0,-0.101991896653511,0,0,2,620.0,156.0,3.9743589743589745,31.794871794871796,6.24485969799507e-5,0.0004995887758396056
2,38,1,../static/images/invador1.png,4,20,8,2.5,left,70,2,972.0,-0.268810460952701,1,0,2,620.0,158.0,3.9240506329113924,31.39240506329114,9.537844138907407e-7,7.630275311125925e-6
2,39,1,../static/images/invador3.png,3,80,8,10.0,right,74,2,1442.0,2.03721086906551,0,0,2,640.0,168.0,3.8095238095238093,30.476190476190474,0.2677118618366648,2.1416948946933183
2,40,1,../static/images/invador1.png,4,20,8,2.5,right,70,1,1112.0,0.418089509691022,0,0,2,720.0,178.0,4.044943820224719,32.359550561797754,1.0708474473741547,8.566779578993238
2,41,1,../static/images/invador2.png,1,80,2,40.0,left,70,2,1444.0,2.04702372578899,0,0,2,720.0,180.0,4.0,8.0,0.016355172963902837,0.032710345927805674
2,42,1,../static/images/invador1.png,4,20,8,2.5,left,74,1,944.0,-0.406190455081446,0,0,2,800.0,184.0,4.3478260869565215,34.78260869565217,1.070847918838281,8.566783350706247
2,43,1,../static/images/invador1.png,4,20,8,2.5,left,74,1,1112.0,0.418089509691022,0,0,2,800.0,186.0,4.301075268817204,34.40860215053763,0.016355180164627222,0.13084144131701778
2,44,1,../static/images/invador4.png,2,20,2,10.0,right,70,1,662.0,-1.78980325309237,2,0,2,800.0,188.0,4.25531914893617,8.51063829787234,0.0002497944979036863,0.0004995889958073726
2,45,1,../static/images/invador3.png,3,80,8,10.0,left,70,2,1096.0,0.339586655903168,0,0,2,800.0,190.0,4.2105263157894735,33.68421052631579,3.8151393353591294e-6,3.0521114682873036e-5
2,46,1,../static/images/invador1.png,4,20,8,2.5,left,74,1,946.0,-0.396377598357964,0,0,2,880.0,200.0,4.4,35.2,1.0708474473466592,8.566779578773273
2,47,1,../static/images/invador2.png,1,80,2,40.0,right,70,1,642.0,-1.88793182032719,2,0,2,880.0,202.0,4.356435643564357,8.712871287128714,0.016355172963482892,0.032710345926965784
2,48,1,../static/images/invador1.png,4,20,8,2.5,left,74,1,892.0,-0.661324729891971,0,0,2,880.0,204.0,4.313725490196078,34.509803921568626,0.0002497943879198026,0.0019983551033584206
2,49,1,../static/images/invador3.png,3,80,8,10.0,left,70,2,954.0,-0.357126171464037,1,0,2,880.0,206.0,4.271844660194175,34.1747572815534,3.815137655562959e-6,3.0521101244503674e-5
2,50,1,../static/images/invador1.png,4,20,8,2.5,left,74,1,896.0,-0.641699016445008,0,0,2,960.0,216.0,4.444444444444445,35.55555555555556,1.0708474473466592,8.566779578773273
2,51,1,../static/images/invador4.png,2,20,2,10.0,left,70,2,812.0,-1.05383899883124,1,0,2,960.0,218.0,4.4036697247706424,8.807339449541285,0.016355172963482892,0.032710345926965784
2,52,1,../static/images/invador1.png,4,20,8,2.5,right,70,1,1128.0,0.496592363478876,0,0,2,980.0,222.0,4.414414414414415,35.31531531531532,0.2677123333282869,2.1416986666262954
2,53,1,../static/images/invador2.png,1,80,2,40.0,left,70,2,1108.0,0.398463796244058,0,0,2,980.0,224.0,4.375,8.75,0.004088800442015059,0.008177600884030118
2,54,1,../static/images/invador1.png,4,20,8,2.5,right,70,1,994.0,-0.160869036994402,0,0,2,1060.0,228.0,4.649122807017544,37.19298245614035,1.0708475652197718,8.566780521758174
2,55,1,../static/images/invador1.png,4,20,8,2.5,right,70,1,924.0,-0.504319022316263,0,0,2,1060.0,230.0,4.608695652173913,36.869565217391305,0.01635517476377214,0.13084139811017712
2,56,1,../static/images/invador4.png,2,20,2,10.0,right,70,1,1394.0,1.80170230770195,0,0,2,1060.0,232.0,4.568965517241379,9.137931034482758,0.0002497944154158219,0.0004995888308316437
2,57,1,../static/images/invador1.png,4,20,8,2.5,right,70,1,1198.0,0.840042348800737,0,0,2,1060.0,234.0,4.52991452991453,36.23931623931624,3.815138075512741e-6,3.0521104604101925e-5
2,58,1,../static/images/invador3.png,3,80,8,10.0,right,74,2,1288.0,1.28162090135742,0,0,2,1060.0,236.0,4.491525423728813,35.932203389830505,5.826903099894175e-8,4.66152247991534e-7
2,59,1,../static/images/invador1.png,4,20,8,2.5,right,70,1,988.0,-0.190307607164847,0,0,2,1140.0,246.0,4.634146341463414,37.073170731707314,1.0708474473466587,8.56677957877327
2,60,1,../static/images/invador2.png,1,80,2,40.0,right,74,2,1228.0,0.987235199652963,0,0,2,1140.0,248.0,4.596774193548387,9.193548387096774,0.016355172963482885,0.03271034592696577
2,61,1,../static/images/invador1.png,4,20,8,2.5,right,70,1,916.0,-0.54357044921019,0,0,2,1220.0,252.0,4.841269841269841,38.73015873015873,1.070847918838281,8.566783350706247
2,62,1,../static/images/invador1.png,4,20,8,2.5,left,74,1,1006.0,-0.101991896653511,0,0,2,1220.0,254.0,4.803149606299213,38.425196850393704,0.016355180164627222,0.13084144131701778
2,63,1,../static/images/invador2.png,1,80,2,40.0,left,70,2,784.0,-1.19121899295999,1,0,2,1220.0,256.0,4.765625,9.53125,0.0002497944979036863,0.0004995889958073726
2,64,1,../static/images/invador1.png,4,20,8,2.5,right,70,1,912.0,-0.563196162657154,0,0,2,1300.0,260.0,5.0,40.0,1.0708474545478062,8.56677963638245
2,65,1,../static/images/invador1.png,4,20,8,2.5,left,74,1,938.0,-0.435629025251891,0,0,2,1300.0,262.0,4.961832061068702,39.69465648854962,0.016355173073466817,0.13084138458773453
2,66,1,../static/images/invador4.png,2,20,2,10.0,left,74,1,1158.0,0.643785214331102,0,0,2,1300.0,264.0,4.924242424242424,9.848484848484848,0.00024979438959959934,0.0004995887791991987
2,67,1,../static/images/invador1.png,4,20,8,2.5,left,74,1,1124.0,0.476966650031912,0,0,2,1300.0,266.0,4.887218045112782,39.097744360902254,3.8151376812186835e-6,3.052110144974947e-5
2,68,1,../static/images/invador3.png,3,80,8,10.0,left,70,2,1006.0,-0.101991896653511,0,0,2,1300.0,268.0,4.850746268656716,38.80597014925373,5.8269024976844464e-8,4.661521998147557e-7
2,69,1,../static/images/invador1.png,4,20,8,2.5,right,70,1,940.0,-0.425816168528409,0,0,2,1380.0,278.0,4.9640287769784175,39.71223021582734,1.0708474473466587,8.56677957877327
2,70,1,../static/images/invador1.png,4,20,8,2.5,left,74,1,904.0,-0.602447589551081,0,0,2,1380.0,280.0,4.928571428571429,39.42857142857143,0.016355172963482885,0.13084138370786308
2,71,1,../static/images/invador4.png,2,20,2,10.0,left,74,1,730.0,-1.45616612449399,2,0,2,1380.0,282.0,4.8936170212765955,9.787234042553191,0.00024979438791980247,0.0004995887758396049
2,72,1,../static/images/invador1.png,4,20,8,2.5,right,70,1,1070.0,0.212019518497905,0,0,2,1380.0,284.0,4.859154929577465,38.87323943661972,3.815137655562958e-6,3.052110124450366e-5
2,73,1,../static/images/invador1.png,4,20,8,2.5,left,74,1,940.0,-0.425816168528409,0,0,2,1380.0,286.0,4.825174825174825,38.6013986013986,5.8269024585001695e-8,4.6615219668001356e-7
2,74,1,../static/images/invador3.png,3,80,8,10.0,right,74,2,1046.0,0.0942652378161237,1,0,2,1380.0,288.0,4.791666666666667,38.333333333333336,8.899493367262336e-10,7.119594693809868e-9
2,75,1,../static/images/invador1.png,4,20,8,2.5,right,70,1,916.0,-0.54357044921019,2,0,2,1460.0,298.0,4.899328859060403,39.19463087248322,1.0708474473466587,8.56677957877327
2,76,1,../static/images/invador2.png,1,80,2,40.0,left,70,2,1038.0,0.0550138109221967,0,0,2,1460.0,300.0,4.866666666666666,9.733333333333333,0.016355172963482885,0.03271034592696577
2,77,1,../static/images/invador1.png,4,20,8,2.5,right,70,1,872.0,-0.759453297126789,2,0,2,1540.0,304.0,5.065789473684211,40.526315789473685,1.070847918838281,8.566783350706247
2,78,1,../static/images/invador1.png,4,20,8,2.5,left,70,2,952.0,-0.366939028187519,1,0,2,1540.0,306.0,5.032679738562091,40.26143790849673,0.016355180164627222,0.13084144131701778
2,79,1,../static/images/invador1.png,4,20,8,2.5,left,74,1,928.0,-0.4846933088693,0,0,2,1560.0,316.0,4.936708860759493,39.49367088607595,0.2677118618383445,2.141694894706756
2,80,1,../static/images/invador1.png,4,20,8,2.5,right,70,1,792.0,-1.15196756606606,0,0,2,1560.0,318.0,4.90566037735849,39.24528301886792,0.004088793240896377,0.032710345927171015
2,81,1,../static/images/invador3.png,3,80,8,10.0,right,74,2,1030.0,0.0157623840282697,0,0,2,1560.0,320.0,4.875,39.0,6.244859698034246e-5,0.0004995887758427397
2,82,1,../static/images/invador4.png,2,20,2,10.0,right,70,1,1112.0,0.418089509691022,0,0,2,1640.0,330.0,4.96969696969697,9.93939393939394,1.0708474473466651,2.1416948946933303
2,83,1,../static/images/invador2.png,1,80,2,40.0,right,74,2,1112.0,0.418089509691022,0,0,2,1640.0,332.0,4.9397590361445785,9.879518072289157,0.016355172963482986,0.03271034592696597
2,84,1,../static/images/invador1.png,4,20,8,2.5,left,74,1,912.0,-0.563196162657154,0,0,2,1720.0,336.0,5.119047619047619,40.95238095238095,1.070847918838281,8.566783350706247
2,85,1,../static/images/invador1.png,4,20,8,2.5,right,74,2,810.0,-1.06365185555472,1,0,2,1720.0,338.0,5.088757396449704,40.710059171597635,0.016355180164627222,0.13084144131701778
2,86,1,../static/images/invador4.png,2,20,2,10.0,left,74,1,1066.0,0.192393805050941,0,0,2,1740.0,348.0,5.0,10.0,0.2677118618383445,0.535423723676689
2,87,1,../static/images/invador2.png,1,80,2,40.0,left,70,2,1110.0,0.40827665296754,0,0,2,1740.0,350.0,4.9714285714285715,9.942857142857143,0.004088793240896377,0.008177586481792754
2,88,1,../static/images/invador1.png,4,20,8,2.5,right,70,1,998.0,-0.141243323547438,0,0,2,1820.0,354.0,5.141242937853107,41.12994350282486,1.0708475652195644,8.566780521756515
2,89,1,../static/images/invador3.png,3,80,8,10.0,left,70,2,1020.0,-0.0333018995891391,0,0,2,1820.0,356.0,5.112359550561798,40.89887640449438,0.016355174763768972,0.13084139811015177
2,90,1,../static/images/invador1.png,4,20,8,2.5,right,74,2,934.0,-0.455254738698854,1,0,2,1900.0,366.0,5.191256830601093,41.53005464480874,1.0708474473483385,8.566779578786708
2,91,1,../static/images/invador1.png,4,20,8,2.5,left,74,1,1100.0,0.359212369350131,2,0,2,1920.0,376.0,5.1063829787234045,40.851063829787236,0.26771186194664853,2.1416948955731883
2,92,1,../static/images/invador2.png,1,80,2,40.0,left,70,2,1142.0,0.565282360543248,0,0,2,1920.0,378.0,5.079365079365079,10.158730158730158,0.004088793242550517,0.008177586485101035
2,93,1,../static/images/invador1.png,4,20,8,2.5,left,74,1,932.0,-0.465067595422336,2,0,2,2000.0,382.0,5.2356020942408374,41.8848167539267,1.0708475652195644,8.566780521756515
2,94,1,../static/images/invador1.png,4,20,8,2.5,right,70,1,1156.0,0.63397235760762,0,0,2,2000.0,384.0,5.208333333333333,41.666666666666664,0.016355174763768972,0.13084139811015177
2,95,1,../static/images/invador1.png,4,20,8,2.5,left,74,1,1034.0,0.0353880974752332,2,0,2,2000.0,386.0,5.181347150259067,41.45077720207254,0.00024979441541577346,0.0019983553233261877
2,96,1,../static/images/invador4.png,2,20,2,10.0,left,74,1,754.0,-1.33841184381221,2,0,2,2000.0,388.0,5.154639175257732,10.309278350515465,3.815138075512001e-6,7.630276151024002e-6
2,97,1,../static/images/invador3.png,3,80,8,10.0,right,70,1,718.0,-1.51504326483488,2,0,2,2000.0,390.0,5.128205128205129,41.02564102564103,5.826903099893046e-8,4.661522479914437e-7
2,98,1,../static/images/invador1.png,4,20,8,2.5,left,70,2,918.0,-0.533757592486709,1,0,2,2000.0,392.0,5.1020408163265305,40.816326530612244,8.899494346868857e-10,7.119595477495086e-9
2,99,1,../static/images/invador1.png,4,20,8,2.5,left,74,1,882.0,-0.71038901350938,0,0,2,2020.0,402.0,5.024875621890548,40.19900497512438,0.2677118618366647,2.1416948946933174
2,100,1,../static/images/invador2.png,1,80,2,40.0,right,74,2,978.0,-0.239371890782256,0,0,2,2020.0,404.0,5.0,10.0,0.004088793240870721,0.008177586481741442
2,101,1,../static/images/invador1.png,4,20,8,2.5,right,70,1,924.0,-0.504319022316263,0,0,2,2100.0,408.0,5.147058823529412,41.1764705882353,1.0708475652195644,8.566780521756515
2,102,1,../static/images/invador1.png,4,20,8,2.5,left,74,1,978.0,-0.239371890782256,2,0,2,2100.0,410.0,5.121951219512195,40.97560975609756,0.016355174763768972,0.13084139811015177
2,103,1,../static/images/invador3.png,3,80,8,10.0,left,70,2,894.0,-0.651511873168489,0,0,2,2100.0,412.0,5.097087378640777,40.77669902912621,0.00024979441541577346,0.0019983553233261877
2,104,1,../static/images/invador4.png,2,20,2,10.0,right,70,1,1040.0,0.0648266676456784,0,0,2,2180.0,422.0,5.165876777251185,10.33175355450237,1.0708474473466842,2.1416948946933685
2,105,1,../static/images/invador1.png,4,20,8,2.5,left,74,1,866.0,-0.788891867297234,0,0,2,2180.0,424.0,5.1415094339622645,41.132075471698116,0.016355172963483277,0.13084138370786622
2,106,1,../static/images/invador2.png,1,80,2,40.0,right,74,2,1126.0,0.486779506755394,0,0,2,2180.0,426.0,5.117370892018779,10.234741784037558,0.0002497943879198085,0.000499588775839617
2,107,1,../static/images/invador1.png,4,20,8,2.5,right,70,1,956.0,-0.347313314740555,0,0,2,2260.0,430.0,5.255813953488372,42.04651162790697,1.070847454547803,8.566779636382424
2,108,1,../static/images/invador3.png,3,80,8,10.0,left,70,2,930.0,-0.474880452145818,0,0,2,2260.0,432.0,5.231481481481482,41.851851851851855,0.016355173073466768,0.13084138458773414
2,109,1,../static/images/invador1.png,4,20,8,2.5,left,74,1,930.0,-0.474880452145818,0,0,2,2340.0,442.0,5.294117647058823,42.35294117647059,1.0708474473483385,8.566779578786708
2,110,1,../static/images/invador4.png,2,20,2,10.0,right,70,1,858.0,-0.828143294191161,2,0,2,2340.0,444.0,5.27027027027027,10.54054054054054,0.016355172963508538,0.032710345927017076
2,111,1,../static/images/invador1.png,4,20,8,2.5,right,70,1,990.0,-0.180494750441365,0,0,2,2340.0,446.0,5.246636771300448,41.973094170403584,0.0002497943879201943,0.0019983551033615544
2,112,1,../static/images/invador1.png,4,20,8,2.5,left,70,2,1136.0,0.535843790372802,1,0,2,2340.0,448.0,5.223214285714286,41.785714285714285,3.815137655568942e-6,3.0521101244551535e-5
2,113,1,../static/images/invador3.png,3,80,8,10.0,left,70,2,1000.0,-0.131430466823957,0,0,2,2360.0,458.0,5.152838427947598,41.222707423580786,0.267711861836665,2.14169489469332
2,114,1,../static/images/invador1.png,4,20,8,2.5,left,70,2,834.0,-0.945897574872942,1,0,2,2440.0,468.0,5.213675213675214,41.70940170940171,1.0708474473741547,8.566779578993238
2,115,1,../static/images/invador4.png,2,20,2,10.0,left,74,1,1112.0,0.418089509691022,0,0,2,2460.0,478.0,5.146443514644352,10.292887029288703,0.26771186194664853,0.5354237238932971
2,116,1,../static/images/invador2.png,1,80,2,40.0,right,70,1,786.0,-1.1814061362365,2,0,2,2460.0,480.0,5.125,10.25,0.004088793242550517,0.008177586485101035
2,117,1,../static/images/invador1.png,4,20,8,2.5,right,70,1,998.0,-0.141243323547438,0,0,2,2460.0,482.0,5.1037344398340245,40.829875518672196,6.244859700560632e-5,0.0004995887760448506
2,118,1,../static/images/invador1.png,4,20,8,2.5,right,70,1,854.0,-0.847769007638125,0,0,2,2460.0,484.0,5.082644628099174,40.66115702479339,9.53784414282582e-7,7.630275314260655e-6
2,119,1,../static/images/invador1.png,4,20,8,2.5,right,70,1,1190.0,0.80079092190681,0,0,2,2460.0,486.0,5.061728395061729,40.49382716049383,1.4567256152235077e-8,1.1653804921788062e-7
2,120,1,../static/images/invador2.png,1,80,2,40.0,right,74,2,1090.0,0.310148085732722,1,0,2,2460.0,488.0,5.040983606557377,10.081967213114755,2.224873342729627e-10,4.449746685459254e-10
2,121,1,../static/images/invador1.png,4,20,8,2.5,left,74,1,1058.0,0.153142378157014,0,0,2,2540.0,492.0,5.162601626016261,41.300813008130085,1.0708474473466651,8.566779578773321
2,122,1,../static/images/invador1.png,4,20,8,2.5,right,70,1,844.0,-0.896833291255533,0,0,2,2540.0,494.0,5.1417004048583,41.1336032388664,0.016355172963482986,0.13084138370786388
2,123,1,../static/images/invador3.png,3,80,8,10.0,right,74,2,1010.0,-0.0823661832065479,1,0,2,2540.0,496.0,5.120967741935484,40.96774193548387,0.00024979438791980404,0.0019983551033584323
2,124,2,../static/images/invador1.png,4,20,8,2.5,right,70,1,1082.0,0.270896658838795,0,0,2,2620.0,506.0,5.177865612648222,41.42292490118577,1.0708474473466842,8.566779578773474
2,125,2,../static/images/invador1.png,4,20,8,2.5,right,74,2,1352.0,1.59563231650883,0,0,2,2620.0,508.0,5.15748031496063,41.25984251968504,0.016355172963483277,0.13084138370786622
2,126,2,../static/images/invador1.png,4,20,8,2.5,left,74,1,1248.0,1.08536376688778,0,0,2,2640.0,518.0,5.096525096525096,40.77220077220077,0.2677118618383445,2.141694894706756
2,127,2,../static/images/invador1.png,4,20,8,2.5,right,70,1,960.0,-0.327687601293592,2,0,2,2640.0,520.0,5.076923076923077,40.61538461538461,0.004088793240896377,0.032710345927171015
2,128,2,../static/images/invador1.png,4,20,8,2.5,left,74,1,1286.0,1.27180804463393,0,0,2,2640.0,522.0,5.057471264367816,40.45977011494253,6.244859698034246e-5,0.0004995887758427397
2,129,2,../static/images/invador1.png,4,20,8,2.5,left,74,1,1058.0,0.153142378157014,0,0,2,2640.0,524.0,5.038167938931298,40.30534351145038,9.537844138967241e-7,7.630275311173793e-6
2,130,2,../static/images/invador1.png,4,20,8,2.5,left,74,1,1104.0,0.378838082797095,0,0,2,2640.0,526.0,5.019011406844107,40.152091254752854,1.4567256146341829e-8,1.1653804917073463e-7
2,131,2,../static/images/invador1.png,4,20,8,2.5,left,74,1,1018.0,-0.0431147563126208,0,0,2,2640.0,528.0,5.0,40.0,2.2248733418295444e-10,1.7798986734636355e-9
2,132,2,../static/images/invador1.png,4,20,8,2.5,left,70,2,1152.0,0.614346644160657,1,0,2,2640.0,530.0,4.981132075471698,39.84905660377358,3.39807396633637e-12,2.718459173069096e-11
2,133,2,../static/images/invador1.png,4,20,8,2.5,left,74,1,1076.0,0.24145808866835,0,0,2,2660.0,540.0,4.925925925925926,39.407407407407405,0.2677118618366647,2.1416948946933174
2,134,2,../static/images/invador1.png,4,20,8,2.5,left,74,1,1048.0,0.104078094539605,0,0,2,2660.0,542.0,4.907749077490775,39.2619926199262,0.004088793240870721,0.03271034592696577
2,135,2,../static/images/invador1.png,4,20,8,2.5,left,74,1,1254.0,1.11480233705823,0,0,2,2660.0,544.0,4.889705882352941,39.11764705882353,6.244859697995062e-5,0.0004995887758396049
2,136,2,../static/images/invador1.png,4,20,8,2.5,left,70,2,1074.0,0.231645231944868,1,0,2,2660.0,546.0,4.871794871794871,38.97435897435897,9.537844138907394e-7,7.630275311125915e-6
2,137,2,../static/images/invador1.png,4,20,8,2.5,right,74,2,998.0,-0.141243323547438,1,0,2,2680.0,556.0,4.820143884892087,38.56115107913669,0.2677118618366648,2.1416948946933183
2,138,2,../static/images/invador1.png,4,20,8,2.5,left,74,1,1274.0,1.21293090429304,0,0,2,2700.0,566.0,4.770318021201414,38.16254416961131,0.2677118618641606,2.141694894913285
2,139,2,../static/images/invador1.png,4,20,8,2.5,left,74,1,920.0,-0.523944735763227,2,0,2,2700.0,568.0,4.753521126760563,38.028169014084504,0.00408879324129067,0.03271034593032536
2,140,2,../static/images/invador1.png,4,20,8,2.5,right,70,1,960.0,-0.327687601293592,0,0,2,2700.0,570.0,4.7368421052631575,37.89473684210526,6.244859698636454e-5,0.0004995887758909163
2,141,2,../static/images/invador1.png,4,20,8,2.5,right,70,1,1094.0,0.329773799179686,0,0,2,2700.0,572.0,4.72027972027972,37.76223776223776,9.537844139886998e-7,7.630275311909599e-6
2,142,2,../static/images/invador1.png,4,20,8,2.5,left,74,1,980.0,-0.229559034058774,0,0,2,2700.0,574.0,4.70383275261324,37.63066202090592,1.4567256147746583e-8,1.1653804918197267e-7
2,143,2,../static/images/invador1.png,4,20,8,2.5,left,74,1,942.0,-0.416003311804927,2,0,2,2700.0,576.0,4.6875,37.5,2.2248733420440943e-10,1.7798986736352755e-9
2,144,2,../static/images/invador1.png,4,20,8,2.5,left,70,2,1510.0,2.37084799766389,0,0,2,2700.0,578.0,4.671280276816609,37.37024221453287,3.398073966664055e-12,2.718459173331244e-11
2,145,2,../static/images/invador1.png,4,20,8,2.5,left,74,1,1188.0,0.790978065183328,0,0,2,2720.0,588.0,4.625850340136054,37.006802721088434,0.2677118618366647,2.1416948946933174
2,146,2,../static/images/invador1.png,4,20,8,2.5,right,70,1,1016.0,-0.0529276130361026,0,0,2,2720.0,590.0,4.610169491525424,36.88135593220339,0.004088793240870721,0.03271034592696577
2,147,2,../static/images/invador1.png,4,20,8,2.5,left,74,1,936.0,-0.445441881975373,2,0,2,2720.0,592.0,4.594594594594595,36.75675675675676,6.244859697995062e-5,0.0004995887758396049
2,148,2,../static/images/invador1.png,4,20,8,2.5,right,70,1,874.0,-0.749640440403307,2,0,2,2720.0,594.0,4.579124579124579,36.63299663299663,9.537844138907394e-7,7.630275311125915e-6
2,149,2,../static/images/invador1.png,4,20,8,2.5,right,70,1,994.0,-0.160869036994402,2,0,2,2720.0,596.0,4.563758389261745,36.51006711409396,1.4567256146250424e-8,1.1653804917000339e-7
2,150,2,../static/images/invador1.png,4,20,8,2.5,right,74,2,1136.0,0.535843790372802,1,0,2,2720.0,598.0,4.548494983277592,36.38795986622073,2.224873341815584e-10,1.779898673452467e-9
2,151,2,../static/images/invador1.png,4,20,8,2.5,right,74,2,1366.0,1.6643223135732,0,0,2,2740.0,608.0,4.506578947368421,36.05263157894737,0.2677118618366647,2.1416948946933174
2,152,2,../static/images/invador1.png,4,20,8,2.5,left,70,2,1224.0,0.967609486206,0,0,2,2760.0,618.0,4.466019417475728,35.728155339805824,0.2677118618641606,2.141694894913285
2,153,2,../static/images/invador1.png,4,20,8,2.5,left,70,2,970.0,-0.278623317676183,0,0,2,2780.0,628.0,4.426751592356688,35.4140127388535,0.2677118618641606,2.141694894913285
2,154,2,../static/images/invador1.png,4,20,8,2.5,left,74,1,710.0,-1.55429469172881,2,0,2,2800.0,638.0,4.38871473354232,35.10971786833856,0.2677118618641606,2.141694894913285
2,155,2,../static/images/invador1.png,4,20,8,2.5,left,74,1,924.0,-0.504319022316263,2,0,2,2800.0,640.0,4.375,35.0,0.00408879324129067,0.03271034593032536
2,156,2,../static/images/invador1.png,4,20,8,2.5,left,70,2,1050.0,0.113890951263087,1,0,2,2800.0,642.0,4.361370716510903,34.890965732087224,6.244859698636454e-5,0.0004995887758909163
2,157,2,../static/images/invador1.png,4,20,8,2.5,left,70,2,1120.0,0.457340936584949,0,0,2,2820.0,652.0,4.325153374233129,34.60122699386503,0.26771186183667106,2.1416948946933685
2,158,0,../static/images/invador1.png,4,20,8,2.5,left,70,2,1272.0,1.20311804756956,0,0,2,2840.0,662.0,4.290030211480363,34.3202416918429,0.2677118618641606,2.141694894913285
2,159,0,../static/images/invador2.png,1,80,2,40.0,left,70,2,1356.0,1.6152580299558,0,0,2,2860.0,672.0,4.255952380952381,8.511904761904763,0.2677118618641606,0.5354237237283213
2,160,0,../static/images/invador4.png,2,20,2,10.0,left,74,1,1300.0,1.34049804169831,0,0,2,2940.0,676.0,4.349112426035503,8.698224852071005,1.0708551650210807,2.1417103300421614
2,161,0,../static/images/invador2.png,1,80,2,40.0,left,74,1,992.0,-0.170681893717884,2,0,2,2940.0,678.0,4.336283185840708,8.672566371681416,0.01635529083638846,0.03271058167277692
2,162,0,../static/images/invador1.png,4,20,8,2.5,right,70,1,1196.0,0.830229492077255,0,0,2,2940.0,680.0,4.323529411764706,34.588235294117645,0.0002497961882058873,0.0019983695056470983
2,163,0,../static/images/invador2.png,1,80,2,40.0,right,74,2,1314.0,1.40918803876268,0,0,2,2940.0,682.0,4.310850439882698,8.621700879765395,3.815165151533905e-6,7.63033030306781e-6
2,164,0,../static/images/invador2.png,1,80,2,40.0,right,74,2,1244.0,1.06573805344082,0,0,2,3020.0,686.0,4.402332361516035,8.80466472303207,1.0708474474566434,2.141694894913287
2,165,0,../static/images/invador2.png,1,80,2,40.0,right,74,2,1452.0,2.08627515268292,0,0,2,3100.0,690.0,4.492753623188406,8.985507246376812,1.0708783180443457,2.1417566360886915
2,166,0,../static/images/invador3.png,3,80,8,10.0,right,74,2,1020.0,-0.0333018995891391,0,0,2,3180.0,694.0,4.582132564841499,36.65706051873199,1.070878318934292,8.567026551474337
2,167,0,../static/images/invador4.png,2,20,2,10.0,left,74,1,882.0,-0.71038901350938,2,0,2,3260.0,704.0,4.630681818181818,9.261363636363637,1.0708474474566458,2.1416948949132917
2,168,0,../static/images/invador4.png,2,20,2,10.0,right,70,1,634.0,-1.92718324722112,2,0,2,3260.0,706.0,4.61756373937677,9.23512747875354,0.01635517296516273,0.03271034593032546
2,169,0,../static/images/invador1.png,4,20,8,2.5,left,74,1,1124.0,0.476966650031912,0,0,2,3260.0,708.0,4.604519774011299,36.836158192090394,0.0002497943879454589,0.0019983551035636714
2,170,0,../static/images/invador2.png,1,80,2,40.0,right,74,2,1110.0,0.40827665296754,0,0,2,3260.0,710.0,4.591549295774648,9.183098591549296,3.815137655954811e-6,7.630275311909622e-6
2,171,0,../static/images/invador3.png,3,80,8,10.0,left,70,2,1000.0,-0.131430466823957,0,0,2,3340.0,714.0,4.677871148459384,37.42296918767507,1.0708474474566425,8.56677957965314
2,172,0,../static/images/invador2.png,1,80,2,40.0,right,74,2,1234.0,1.01667376982341,0,0,2,3420.0,724.0,4.723756906077348,9.447513812154696,1.0708474474566425,2.141694894913285
2,173,0,../static/images/invador2.png,1,80,2,40.0,right,74,2,970.0,-0.278623317676183,0,0,2,3500.0,728.0,4.8076923076923075,9.615384615384615,1.0708783180443457,2.1417566360886915
2,174,0,../static/images/invador2.png,1,80,2,40.0,right,74,2,896.0,-0.641699016445008,1,0,2,3580.0,732.0,4.890710382513661,9.781420765027322,1.070878318934292,2.141756637868584
2,175,0,../static/images/invador2.png,1,80,2,40.0,left,70,2,916.0,-0.54357044921019,0,0,2,3660.0,736.0,4.9728260869565215,9.945652173913043,1.0708783189343178,2.1417566378686357
2,176,0,../static/images/invador3.png,3,80,8,10.0,right,74,0,NaN,NaN,0,1,2,3740.0,740.0,5.054054054054054,40.432432432432435,1.0708783189343178,8.567026551474543
2,177,0,../static/images/invador4.png,2,20,2,10.0,right,70,1,1096.0,0.339586655903168,0,0,2,3740.0,750.0,4.986666666666666,9.973333333333333,8.899749931808751e-10,1.7799499863617503e-9
2,178,0,../static/images/invador1.png,4,20,8,2.5,right,70,1,1104.0,0.378838082797095,0,0,2,3740.0,752.0,4.973404255319149,39.787234042553195,1.3592687719164623e-11,1.0874150175331699e-10
2,179,0,../static/images/invador2.png,1,80,2,40.0,left,70,2,1044.0,0.0844523810926419,1,0,2,3740.0,754.0,4.960212201591512,9.920424403183024,2.0760264147464493e-13,4.1520528294928985e-13
2,180,0,../static/images/invador2.png,1,80,2,40.0,left,70,2,972.0,-0.268810460952701,0,0,2,3820.0,758.0,5.03957783641161,10.07915567282322,1.0708474473466587,2.1416948946933174
2,181,0,../static/images/invador2.png,1,80,2,40.0,right,74,2,1010.0,-0.0823661832065479,0,0,2,3900.0,762.0,5.118110236220472,10.236220472440944,1.0708783180443429,2.1417566360886857
2,182,0,../static/images/invador2.png,1,80,2,40.0,left,70,2,1076.0,0.24145808866835,0,0,2,3980.0,766.0,5.195822454308094,10.391644908616188,1.070878318934292,2.141756637868584
2,183,0,../static/images/invador2.png,1,80,2,40.0,right,74,2,986.0,-0.200120463888329,0,0,2,4060.0,770.0,5.2727272727272725,10.545454545454545,1.0708783189343178,2.1417566378686357
2,184,0,../static/images/invador2.png,1,80,2,40.0,left,70,2,980.0,-0.229559034058774,0,0,2,4140.0,774.0,5.348837209302325,10.69767441860465,1.0708783189343178,2.1417566378686357
2,185,0,../static/images/invador2.png,1,80,2,40.0,left,70,2,1012.0,-0.0725533264830661,0,0,2,4220.0,778.0,5.4241645244215935,10.848329048843187,1.0708783189343178,2.1417566378686357
2,186,0,../static/images/invador3.png,3,80,8,10.0,left,70,2,970.0,-0.278623317676183,0,0,2,4300.0,782.0,5.498721227621483,43.989769820971865,1.0708783189343178,8.567026551474543
2,187,0,../static/images/invador1.png,4,20,8,2.5,right,74,2,830.0,-0.965523288319906,1,0,2,4380.0,792.0,5.53030303030303,44.24242424242424,1.0708474474566458,8.566779579653167
2,188,0,../static/images/invador4.png,2,20,2,10.0,right,70,1,1072.0,0.221832375221386,0,0,2,4400.0,802.0,5.486284289276808,10.972568578553616,0.26771186194664853,0.5354237238932971
2,189,0,../static/images/invador1.png,4,20,8,2.5,right,70,1,1044.0,0.0844523810926419,0,0,2,4400.0,804.0,5.472636815920398,43.78109452736319,0.004088793242550517,0.03271034594040414
2,190,0,../static/images/invador4.png,2,20,2,10.0,left,74,1,946.0,-0.396377598357964,0,0,2,4400.0,806.0,5.459057071960298,10.918114143920596,6.244859700560632e-5,0.00012489719401121265
2,191,0,../static/images/invador2.png,1,80,2,40.0,right,74,2,1248.0,1.08536376688778,0,0,2,4400.0,808.0,5.445544554455446,10.891089108910892,9.53784414282582e-7,1.907568828565164e-6
2,192,0,../static/images/invador2.png,1,80,2,40.0,left,70,2,834.0,-0.945897574872942,1,0,2,4480.0,812.0,5.517241379310345,11.03448275862069,1.0708474473741547,2.1416948947483094
2,193,0,../static/images/invador2.png,1,80,2,40.0,right,74,2,980.0,-0.229559034058774,0,0,2,4560.0,816.0,5.588235294117647,11.176470588235293,1.0708783180443435,2.141756636088687
2,194,0,../static/images/invador2.png,1,80,2,40.0,left,70,2,830.0,-0.965523288319906,0,0,2,4640.0,820.0,5.658536585365853,11.317073170731707,1.070878318934292,2.141756637868584
2,195,0,../static/images/invador3.png,3,80,8,10.0,right,70,1,678.0,-1.71130039930452,2,0,2,4720.0,824.0,5.728155339805825,45.8252427184466,1.0708783189343178,8.567026551474543
2,196,0,../static/images/invador2.png,1,80,2,40.0,left,70,2,1094.0,0.329773799179686,1,0,2,4720.0,826.0,5.714285714285714,11.428571428571429,0.01635564446869782,0.03271128893739564
2,197,0,../static/images/invador2.png,1,80,2,40.0,left,74,1,612.0,-2.03512467117942,2,0,2,4800.0,830.0,5.783132530120482,11.566265060240964,1.0708479188518736,2.141695837703747
2,198,0,../static/images/invador4.png,2,20,2,10.0,right,70,1,884.0,-0.700576156785898,0,0,2,4800.0,832.0,5.769230769230769,11.538461538461538,0.016355180164834827,0.032710360329669654
2,199,0,../static/images/invador1.png,4,20,8,2.5,left,70,2,670.0,-1.75055182619845,1,0,2,4800.0,834.0,5.755395683453237,46.0431654676259,0.00024979449790685703,0.0019983559832548563
2,200,0,../static/images/invador2.png,1,80,2,40.0,right,74,2,1028.0,0.00594952730478791,0,0,2,4820.0,844.0,5.710900473933649,11.421800947867299,0.2677118618366903,0.5354237236733806
2,201,0,../static/images/invador2.png,1,80,2,40.0,right,74,2,888.0,-0.680950443338935,0,0,2,4900.0,848.0,5.778301886792453,11.556603773584905,1.0708551650210798,2.1417103300421596
2,202,0,../static/images/invador3.png,3,80,8,10.0,left,70,2,902.0,-0.612260446274562,0,0,2,4980.0,852.0,5.845070422535211,46.76056338028169,1.0708783182668302,8.567026546134642
2,203,0,../static/images/invador2.png,1,80,2,40.0,left,70,2,930.0,-0.474880452145818,0,0,2,5060.0,862.0,5.870069605568445,11.74013921113689,1.0708474474566458,2.1416948949132917
2,204,0,../static/images/invador2.png,1,80,2,40.0,left,70,2,930.0,-0.474880452145818,0,0,2,5140.0,866.0,5.935334872979214,11.870669745958429,1.0708783180443457,2.1417566360886915
2,205,0,../static/images/invador1.png,4,20,8,2.5,left,70,2,746.0,-1.37766327070614,1,0,2,5220.0,870.0,6.0,48.0,1.070878318934292,8.567026551474337
2,206,0,../static/images/invador2.png,1,80,2,40.0,right,74,2,856.0,-0.837956150914643,0,0,2,5240.0,880.0,5.954545454545454,11.909090909090908,0.2677118619466517,0.5354237238933034
2,207,0,../static/images/invador2.png,1,80,2,40.0,left,70,2,928.0,-0.4846933088693,0,0,2,5320.0,884.0,6.018099547511312,12.036199095022624,1.0708551650210831,2.1417103300421663
2,208,0,../static/images/invador3.png,3,80,8,10.0,left,74,1,798.0,-1.12252899589561,2,0,2,5400.0,888.0,6.081081081081081,48.648648648648646,1.0708783182668302,8.567026546134642
2,209,0,../static/images/invador4.png,2,20,2,10.0,right,70,1,1004.0,-0.111804753376993,0,0,2,5400.0,890.0,6.067415730337078,12.134831460674157,0.016355644458503207,0.03271128891700641
2,210,0,../static/images/invador2.png,1,80,2,40.0,right,74,2,930.0,-0.474880452145818,1,0,2,5400.0,892.0,6.053811659192825,12.10762331838565,0.00024980158911604004,0.0004996031782320801
2,211,0,../static/images/invador1.png,4,20,8,2.5,right,70,1,998.0,-0.141243323547438,2,0,2,5480.0,896.0,6.116071428571429,48.92857142857143,1.0708474545480107,8.566779636384085
2,212,0,../static/images/invador2.png,1,80,2,40.0,left,70,2,1028.0,0.00594952730478791,1,0,2,5480.0,898.0,6.102449888641425,12.20489977728285,0.01635517307346994,0.03271034614693988
2,213,0,../static/images/invador2.png,1,80,2,40.0,right,74,2,1060.0,0.162955234880496,0,0,2,5560.0,902.0,6.164079822616408,12.328159645232816,1.0708479188382842,2.1416958376765685
2,214,0,../static/images/invador3.png,3,80,8,10.0,left,70,2,974.0,-0.258997604229219,0,0,2,5640.0,906.0,6.225165562913907,49.80132450331126,1.0708783180579349,8.567026544463479
2,215,0,../static/images/invador2.png,1,80,2,40.0,right,70,1,674.0,-1.73092611275148,2,0,2,5720.0,916.0,6.244541484716157,12.489082969432314,1.0708474474566458,2.1416948949132917
2,216,0,../static/images/invador4.png,2,20,2,10.0,right,70,1,948.0,-0.386564741634482,0,0,2,5720.0,918.0,6.230936819172113,12.461873638344226,0.01635517296516273,0.03271034593032546
2,217,0,../static/images/invador3.png,3,80,8,10.0,left,70,2,1062.0,0.172768091603978,1,0,2,5720.0,920.0,6.217391304347826,49.73913043478261,0.0002497943879454589,0.0019983551035636714
2,218,0,../static/images/invador4.png,2,20,2,10.0,right,70,1,944.0,-0.406190455081446,2,0,2,5800.0,930.0,6.236559139784946,12.473118279569892,1.0708474473466842,2.1416948946933685
2,219,0,../static/images/invador2.png,1,80,2,40.0,left,70,2,1044.0,0.0844523810926419,0,0,2,5800.0,932.0,6.223175965665236,12.446351931330472,0.016355172963483277,0.032710345926966554
2,220,0,../static/images/invador1.png,4,20,8,2.5,right,70,1,1004.0,-0.111804753376993,0,0,2,5880.0,936.0,6.282051282051282,50.256410256410255,1.070847918838281,8.566783350706247
2,221,0,../static/images/invador2.png,1,80,2,40.0,right,70,1,752.0,-1.34822470053569,2,0,2,5880.0,938.0,6.268656716417911,12.537313432835822,0.016355180164627222,0.032710360329254444
2,222,0,../static/images/invador2.png,1,80,2,40.0,left,74,1,968.0,-0.288436174399665,2,0,2,5880.0,940.0,6.25531914893617,12.51063829787234,0.0002497944979036863,0.0004995889958073726
2,223,0,../static/images/invador2.png,1,80,2,40.0,left,70,2,1286.0,1.27180804463393,0,0,2,5880.0,942.0,6.24203821656051,12.48407643312102,3.8151393353591294e-6,7.630278670718259e-6
2,224,0,../static/images/invador1.png,4,20,8,2.5,right,74,2,1090.0,0.310148085732722,1,0,2,5960.0,946.0,6.3002114164904865,50.40169133192389,1.0708474474566427,8.566779579653142
2,225,0,../static/images/invador2.png,1,80,2,40.0,left,70,2,1072.0,0.221832375221386,0,0,2,5980.0,956.0,6.2552301255230125,12.510460251046025,0.26771186194664853,0.5354237238932971
2,226,0,../static/images/invador4.png,2,20,2,10.0,left,74,1,1074.0,0.231645231944868,0,0,2,6060.0,960.0,6.3125,12.625,1.0708551650210831,2.1417103300421663
2,227,0,../static/images/invador2.png,1,80,2,40.0,left,70,2,990.0,-0.180494750441365,0,0,2,6060.0,962.0,6.299376299376299,12.598752598752599,0.016355290836388498,0.032710581672776996
2,228,0,../static/images/invador2.png,1,80,2,40.0,right,74,2,960.0,-0.327687601293592,0,0,2,6140.0,966.0,6.3561076604554865,12.712215320910973,1.070847918841679,2.141695837683358
2,229,0,../static/images/invador2.png,1,80,2,40.0,right,74,2,1008.0,-0.0921790399300296,1,0,2,6220.0,970.0,6.412371134020619,12.824742268041238,1.070878318057935,2.14175663611587
2,230,0,../static/images/invador3.png,3,80,8,10.0,left,70,2,924.0,-0.504319022316263,1,0,2,6300.0,974.0,6.468172484599589,51.74537987679671,1.0708783189342923,8.567026551474338
2,231,0,../static/images/invador2.png,1,80,2,40.0,right,74,2,1002.0,-0.121617610100475,1,0,2,6380.0,984.0,6.483739837398374,12.967479674796747,1.0708474474566458,2.1416948949132917
2,232,0,../static/images/invador2.png,1,80,2,40.0,right,74,2,942.0,-0.416003311804927,0,0,2,6460.0,988.0,6.538461538461538,13.076923076923077,1.0708783180443457,2.1417566360886915
2,233,0,../static/images/invador3.png,3,80,8,10.0,left,70,2,854.0,-0.847769007638125,0,0,2,6540.0,992.0,6.592741935483871,52.74193548387097,1.070878318934292,8.567026551474337
2,234,0,../static/images/invador4.png,2,20,2,10.0,right,70,1,926.0,-0.494506165592781,0,0,2,6620.0,1002.0,6.606786427145709,13.213572854291417,1.0708474474566458,2.1416948949132917
2,235,0,../static/images/invador2.png,1,80,2,40.0,right,74,2,1028.0,0.00594952730478791,0,0,2,6620.0,1004.0,6.5936254980079685,13.187250996015937,0.01635517296516273,0.03271034593032546
2,236,0,../static/images/invador1.png,4,20,8,2.5,right,70,1,918.0,-0.533757592486709,0,0,2,6700.0,1008.0,6.646825396825397,53.17460317460318,1.070847918838281,8.566783350706247
2,237,0,../static/images/invador2.png,1,80,2,40.0,right,74,2,964.0,-0.308061887846628,0,0,2,6700.0,1010.0,6.633663366336633,13.267326732673267,0.016355180164627222,0.032710360329254444
2,238,0,../static/images/invador4.png,2,20,2,10.0,right,70,1,856.0,-0.837956150914643,0,0,2,6780.0,1014.0,6.686390532544379,13.372781065088757,1.0708479188384883,2.1416958376769766
2,239,0,../static/images/invador1.png,4,20,8,2.5,right,70,1,1068.0,0.202206661774423,0,0,2,6780.0,1016.0,6.673228346456693,53.38582677165354,0.01635518016463039,0.13084144131704312
2,240,0,../static/images/invador2.png,1,80,2,40.0,left,70,2,940.0,-0.425816168528409,0,0,2,6780.0,1018.0,6.660117878192534,13.320235756385069,0.0002497944979037346,0.0004995889958074692
2,241,0,../static/images/invador2.png,1,80,2,40.0,left,70,2,1052.0,0.123703807986569,0,0,2,6860.0,1022.0,6.712328767123288,13.424657534246576,1.0708474545478062,2.1416949090956123
2,242,0,../static/images/invador3.png,3,80,8,10.0,right,74,2,892.0,-0.661324729891971,0,0,2,6940.0,1026.0,6.764132553606238,54.113060428849906,1.0708783180445505,8.567026544356404
2,243,0,../static/images/invador2.png,1,80,2,40.0,left,74,1,896.0,-0.641699016445008,2,0,2,7020.0,1036.0,6.776061776061776,13.552123552123552,1.0708474474566458,2.1416948949132917
2,244,0,../static/images/invador2.png,1,80,2,40.0,left,70,2,916.0,-0.54357044921019,0,0,2,7020.0,1038.0,6.763005780346821,13.526011560693641,0.01635517296516273,0.03271034593032546
2,245,0,../static/images/invador1.png,4,20,8,2.5,right,70,1,726.0,-1.47579183794096,2,0,2,7100.0,1042.0,6.813819577735125,54.510556621881,1.070847918838281,8.566783350706247
2,246,0,../static/images/invador2.png,1,80,2,40.0,left,70,2,888.0,-0.680950443338935,0,0,2,7100.0,1044.0,6.800766283524904,13.601532567049809,0.016355180164627222,0.032710360329254444
2,247,0,../static/images/invador3.png,3,80,8,10.0,left,70,2,912.0,-0.563196162657154,0,0,2,7180.0,1048.0,6.851145038167939,54.80916030534351,1.0708479188384883,8.566783350707906
2,248,0,../static/images/invador2.png,1,80,2,40.0,right,74,2,902.0,-0.612260446274562,1,0,2,7260.0,1058.0,6.862003780718337,13.724007561436673,1.0708474474566427,2.1416948949132855
2,249,0,../static/images/invador2.png,1,80,2,40.0,right,74,2,146.0,-4.32152028775066,0,0,2,7340.0,1062.0,6.911487758945386,13.822975517890772,1.0708783180443457,2.1417566360886915
2,250,0,../static/images/invador2.png,1,80,2,40.0,right,74,2,988.0,-0.190307607164847,0,0,2,7420.0,1066.0,6.960600375234522,13.921200750469044,1.070878318934292,2.141756637868584
2,251,0,../static/images/invador4.png,2,20,2,10.0,left,70,2,970.0,-0.278623317676183,1,0,2,7500.0,1070.0,7.009345794392523,14.018691588785046,1.0708783189343178,2.1417566378686357
2,252,0,../static/images/invador1.png,4,20,8,2.5,right,70,1,1064.0,0.182580948327459,0,0,2,7520.0,1074.0,7.001862197392923,56.01489757914339,0.2677427334243237,2.1419418673945896
2,253,0,../static/images/invador4.png,2,20,2,10.0,left,74,1,898.0,-0.631886159721526,0,0,2,7520.0,1076.0,6.988847583643123,13.977695167286246,0.004089264746085653,0.008178529492171306
2,254,0,../static/images/invador3.png,3,80,8,10.0,right,74,2,1106.0,0.388650939520576,0,0,2,7520.0,1078.0,6.975881261595547,55.80705009276438,6.245579833189156e-5,0.0004996463866551325
3,0,0,../static/images/invador3.png,4,20,8,2.5,right,74,2,1327.0,1.65550767443655,0,0,1,0.0,2.0,0.0,0.0,6.328889181677629,50.63111345342103
3,1,0,../static/images/invador4.png,1,80,2,40.0,right,70,1,1007.0,0.260157075483072,2,0,1,20.0,12.0,1.6666666666666667,3.3333333333333335,4.489664115019842,8.979328230039684
3,2,0,../static/images/invador4.png,1,80,2,40.0,right,70,1,733.0,-0.934611874870844,2,0,1,20.0,14.0,1.4285714285714286,2.857142857142857,4.047661915515006,8.095323831030012
3,3,0,../static/images/invador4.png,1,80,2,40.0,left,70,2,1016.0,0.299401311078638,0,0,1,20.0,16.0,1.25,2.5,3.6491743174061924,7.298348634812385
3,4,0,../static/images/invador2.png,2,20,2,10.0,left,70,2,1453.0,2.20492697277448,0,0,1,100.0,20.0,5.0,10.0,6.458477741800721,12.916955483601441
3,5,0,../static/images/invador4.png,1,80,2,40.0,right,74,2,1535.0,2.56248556375631,0,0,1,120.0,24.0,5.0,10.0,5.894880259682692,11.789760519365384
3,6,0,../static/images/invador1.png,3,80,8,10.0,left,70,2,1200.0,1.10172790547689,1,0,1,200.0,28.0,7.142857142857143,57.142857142857146,8.19159854809352,65.53278838474816
3,7,0,../static/images/invador2.png,2,20,2,10.0,left,74,1,894.0,-0.232576104772375,2,0,1,280.0,38.0,7.368421052631579,14.736842105263158,8.274735327290513,16.549470654581025
3,8,0,../static/images/invador3.png,4,20,8,2.5,left,74,1,1997.0,4.5770229909954,0,0,1,280.0,40.0,7.0,56.0,7.460097278366756,59.680778226934045
3,9,0,../static/images/invador4.png,1,80,2,40.0,left,70,2,1395.0,1.95201967671416,0,0,1,280.0,42.0,6.666666666666667,13.333333333333334,6.725659395914257,13.451318791828514
3,10,0,../static/images/invador4.png,1,80,2,40.0,right,74,2,910.0,-0.162808574824701,1,0,1,360.0,46.0,7.826086956521739,15.652173913043478,8.832751327418359,17.665502654836718
3,11,0,../static/images/invador4.png,1,80,2,40.0,left,70,2,1297.0,1.52469355578466,0,0,1,440.0,50.0,8.8,17.6,10.458896940926207,20.917793881852415
3,12,0,../static/images/invador1.png,3,80,8,10.0,left,74,1,1310.0,1.58137967386715,0,0,1,520.0,54.0,9.62962962962963,77.03703703703704,11.713872823465517,93.71098258772413
3,13,0,../static/images/invador4.png,1,80,2,40.0,left,70,2,992.0,0.194750016157128,0,0,1,520.0,56.0,9.285714285714286,18.571428571428573,10.560655696293232,21.121311392586463
3,14,0,../static/images/invador3.png,4,20,8,2.5,left,74,1,1205.0,1.12353025858554,0,0,1,600.0,60.0,10.0,80.0,11.792405018099275,94.3392401447942
3,15,0,../static/images/invador2.png,2,20,2,10.0,right,70,1,1520.0,2.49707850443037,0,0,1,600.0,62.0,9.67741935483871,19.35483870967742,10.63145648789309,21.26291297578618
3,16,0,../static/images/invador1.png,3,80,8,10.0,right,74,2,1315.0,1.60318202697579,1,0,1,600.0,64.0,9.375,75.0,9.584801987422082,76.67841589937666
3,17,0,../static/images/invador4.png,1,80,2,40.0,left,70,2,1265.0,1.38515849588931,1,0,1,680.0,74.0,9.18918918918919,18.37837837837838,9.062618133803978,18.125236267607956
3,18,0,../static/images/invador4.png,1,80,2,40.0,right,74,2,1079.0,0.574110960247605,0,0,1,760.0,78.0,9.743589743589743,19.487179487179485,10.636296366791886,21.27259273358377
3,19,0,../static/images/invador4.png,1,80,2,40.0,right,74,2,751.0,-0.856123403679711,0,0,1,840.0,82.0,10.24390243902439,20.48780487804878,11.8507806127732,23.7015612255464
3,20,0,../static/images/invador4.png,1,80,2,40.0,right,74,2,1345.0,1.73399614562768,0,0,1,920.0,86.0,10.69767441860465,21.3953488372093,12.788057339881703,25.576114679763407
3,21,0,../static/images/invador3.png,4,20,8,2.5,left,74,1,1259.0,1.35899567215894,0,0,1,1000.0,90.0,11.11111111111111,88.88888888888889,13.511399504332262,108.0911960346581
3,22,0,../static/images/invador4.png,1,80,2,40.0,right,74,2,1248.0,1.31103049531991,0,0,1,1000.0,92.0,10.869565217391305,21.73913043478261,12.1812179704121,24.3624359408242
3,23,0,../static/images/invador4.png,1,80,2,40.0,right,74,0,NaN,NaN,0,1,1,1080.0,96.0,11.25,22.5,13.043071965313853,26.086143930627706
3,24,0,../static/images/invador1.png,3,80,8,10.0,right,74,2,1458.0,2.22672932588313,0,0,1,1080.0,106.0,10.18867924528302,81.50943396226415,7.7684036970370824,62.14722957629666
3,25,0,../static/images/invador2.png,2,20,2,10.0,left,70,0,NaN,NaN,0,1,1,1160.0,116.0,10.0,20.0,8.035410661889827,16.070821323779654
3,26,0,../static/images/invador4.png,1,80,2,40.0,left,70,2,1156.0,0.909867198120785,0,0,1,1160.0,126.0,9.206349206349206,18.41269841269841,4.7858598081064905,9.571719616212981
3,27,0,../static/images/invador4.png,1,80,2,40.0,right,74,2,730.0,-0.947693286736033,0,0,1,1240.0,130.0,9.538461538461538,19.076923076923077,7.335713374951692,14.671426749903384
3,28,0,../static/images/invador2.png,2,20,2,10.0,left,70,2,1009.0,0.268878016726531,0,0,1,1320.0,134.0,9.850746268656716,19.70149253731343,9.303559737427593,18.607119474855185
